"Data file recorded 2014/9/24  18:12:57"
"%  Right Stride Frequency         = 3.0"
"%  Left Stride Frequency         = 3.0"
"%  Phase (Fractional)         = 32768.0"
"%  Experiment.py "
"%  Motor Gains    = [1800, 200, 100, 0, 0, 1800, 200, 100, 0, 0]
"% Columns: "
"% time | Right Leg Pos | Left Leg Pos | Commanded Right Leg Pos | Commanded Left Leg Pos | DCR | DCL | GyroX | GryoY | GryoZ | AX | AY | AZ | RBEMF | LBEMF | VBatt "
10882,10072176,10558348,10053120,10610176,-3800,3800,-139,-709,310,896,-472,3972,-12,-8,880
11876,10072176,10558348,10053317,10610373,-3800,3800,-138,-707,308,881,-479,3981,9,-9,881
12877,10072136,10558392,10053514,10610570,-3800,3800,-137,-704,307,891,-485,4004,9,-9,881
13878,10072004,10558460,10053711,10610767,-3800,3800,-136,-695,310,882,-495,3921,-21,-4,837
14880,10071828,10558520,10053908,10610964,-3800,3800,-109,-655,324,738,-181,4408,-21,-4,837
15880,10071480,10558616,10054105,10611161,-3800,3800,-45,-597,354,1079,-344,5012,-52,6,837
16869,10071096,10558724,10054302,10611358,-3772,3800,-25,-673,372,1259,-300,3761,-52,6,837
17870,10070732,10558844,10054499,10611555,-3653,3800,-65,-802,423,650,-824,3866,-77,18,841
18871,10070208,10558972,10054696,10611752,-2339,3800,-116,-780,426,1172,-263,4318,-77,18,841
19872,10069684,10559124,10054893,10611949,-2025,3800,-103,-731,434,1018,552,4610,-95,12,843
20873,10069052,10559264,10055090,10612146,-989,3800,56,-252,347,3116,-52,7837,-95,12,843
21873,10068516,10559424,10055287,10612343,-1269,3800,162,-4,274,2675,-898,4688,-108,27,850
22875,10068000,10559592,10055484,10612540,-1084,3800,-11,-249,411,1399,-666,1793,-108,27,850
23876,10067440,10559752,10055681,10612737,-478,3800,-159,-267,542,2882,-430,4384,-90,34,855
24877,10066972,10559956,10055878,10612934,-763,3800,-165,165,550,3104,60,6473,-90,34,855
25878,10066600,10560136,10056075,10613131,-1116,3800,-104,221,678,1206,-386,2477,-65,34,853
26879,10066212,10560272,10056272,10613328,-761,3800,-66,199,961,1338,-846,5873,-65,34,853
27880,10065936,10560432,10056469,10613525,-1254,3800,-70,334,1052,3749,-980,3884,-57,16,856
28881,10065660,10560584,10056666,10613722,-1048,3800,-83,77,1038,2429,449,3348,-57,16,856
29882,10065440,10560724,10056863,10613919,-1217,3800,-37,-12,1128,1393,-433,5758,-50,15,855
30883,10065272,10560856,10057060,10614116,-1383,3800,32,31,1161,2928,16,5274,-50,15,855
31884,10065172,10560980,10057257,10614313,-1679,3800,-10,242,1157,3083,-1067,4643,-34,9,854
32885,10065060,10561096,10057454,10614510,-1470,3800,5,481,1162,2200,-148,5904,-34,9,854
33886,10064996,10561204,10057651,10614707,-1656,3800,77,443,1176,2001,211,5060,-25,8,852
34887,10064948,10561316,10057848,10614904,-1651,3800,177,274,1216,1588,547,4864,-25,8,852
35888,10064912,10561416,10058045,10615101,-1624,3800,311,22,1329,1319,-431,4932,-5,8,849
36889,10064884,10561520,10058242,10615298,-1576,3800,435,-184,1392,1642,-608,4667,-5,8,849
37890,10064864,10561588,10058439,10615495,-1532,3800,520,-451,1430,700,605,4399,-2,1,847
38891,10064836,10561680,10058636,10615692,-1385,3800,544,-611,1490,35,-413,4550,-2,1,847
39892,10064800,10561768,10058833,10615889,-1234,3800,507,-569,1522,11,177,4338,6,8,850
40893,10064760,10561880,10059030,10616086,-1106,3800,456,-504,1527,-207,171,4353,6,8,850
41893,10064752,10561968,10059227,10616283,-1216,3800,435,-334,1530,-442,-146,4998,6,3,851
42894,10064736,10562064,10059424,10616480,-1074,3800,387,-231,1588,-460,237,3871,6,3,851
43896,10064704,10562156,10059621,10616677,-874,3800,314,-99,1706,-258,-43,3890,7,18,852
44896,10064692,10562272,10059818,10616874,-908,3800,317,88,1846,-603,-566,4499,7,18,852
45897,10064708,10562376,10060015,10617071,-1005,3800,397,59,1948,-301,-84,4075,-1,10,853
46899,10064704,10562516,10060212,10617268,-793,3800,455,-102,1993,362,393,3399,-1,10,853
47900,10064708,10562656,10060409,10617465,-759,3800,473,-292,1970,754,500,3444,8,31,853
48901,10064716,10562800,10060606,10617662,-702,3800,503,-457,1947,-85,1074,3512,8,31,853
49901,10064700,10562920,10060803,10617859,-458,3800,553,-709,1946,-730,1053,3200,-8,18,854
50903,10064712,10563088,10061000,10618056,-553,3800,585,-957,1856,-7,1010,3255,-8,18,854
51904,10064716,10563224,10061197,10618253,-419,3800,575,-1075,1771,-469,868,3696,2,26,855
52905,10064700,10563388,10061394,10618450,-201,3800,550,-1160,1726,-758,874,3941,2,26,855
53906,10064704,10563540,10061591,10618647,-242,3800,508,-1341,1647,41,403,3695,10,25,856
54907,10064712,10563688,10061788,10618844,-184,3800,452,-1419,1575,-2,1186,4189,10,25,856
55908,10064704,10563836,10061985,10619041,6,3800,344,-1558,1578,-493,456,3114,1,40,856
56909,10064716,10564048,10062182,10619238,-39,3800,233,-1652,1578,-681,779,3711,1,40,856
57910,10064724,10564240,10062379,10619435,69,3800,164,-1667,1599,-1124,551,3925,-3,32,853
58911,10064748,10564440,10062576,10619632,44,3800,107,-1656,1615,-1168,1369,4259,-3,32,853
59912,10064788,10564620,10062773,10619829,13,3800,-3,-1592,1609,-467,552,3508,-4,22,855
60913,10064816,10564804,10062970,10620026,161,3800,-103,-1597,1558,-530,1208,3758,-4,22,855
61914,10064840,10565004,10063167,10620223,262,3800,-150,-1630,1482,-513,599,3765,11,42,857
62915,10064900,10565208,10063364,10620420,98,3800,-182,-1695,1390,3,1298,3721,11,42,857
63915,10064972,10565456,10063561,10620617,76,3800,-261,-1762,1336,239,539,2977,8,40,858
64917,10065032,10565664,10063758,10620814,212,3800,-336,-1810,1303,-585,1793,3723,8,40,858
65917,10065128,10565876,10063955,10621011,31,3800,-419,-1916,1303,-828,1202,2968,15,35,857
66918,10065208,10566092,10064152,10621208,182,3800,-502,-2062,1280,-78,840,3179,15,35,857
67920,10065292,10566300,10064349,10621405,206,3800,-526,-2105,1291,-708,794,3971,11,47,857
68921,10065392,10566512,10064546,10621602,149,3800,-536,-2241,1295,-663,91,2812,11,47,857
69921,10065504,10566764,10064743,10621799,111,3800,-518,-2379,1259,-488,-49,3562,33,54,857
70923,10065628,10567044,10064940,10621996,68,3800,-503,-2509,1237,-453,-515,3125,33,54,857
71924,10065756,10567320,10065137,10622193,73,3800,-511,-2564,1270,-1207,226,3484,20,61,858
72925,10065864,10567576,10065334,10622390,238,3800,-560,-2512,1369,-441,-1289,2370,20,61,858
73926,10065980,10567904,10065531,10622587,223,3800,-651,-2328,1340,1290,-1245,2858,37,56,858
74926,10066112,10568296,10065728,10622784,152,3800,-719,-1895,1354,475,-1639,3747,37,56,858
75928,10066200,10568676,10065925,10622981,474,3800,-803,-1519,1485,-391,-2448,2566,28,66,857
76928,10066304,10569028,10066122,10623178,415,3800,-936,-1435,1585,809,-3254,1123,28,66,857
77929,10066428,10569476,10066319,10623375,322,3800,-1025,-1386,1646,711,-3611,1951,18,73,860
78931,10066512,10569944,10066516,10623572,621,3800,-1009,-1206,1724,280,-4084,2840,18,73,860
79932,10066636,10570416,10066713,10623769,403,3800,-974,-941,1822,424,-3684,2538,42,75,857
80933,10066772,10570884,10066910,10623966,355,3800,-1105,-1004,1885,582,-4787,-576,42,75,857
81933,10066912,10571428,10067107,10624163,355,3800,-1277,-1053,1891,585,-4631,810,20,93,858
82935,10067032,10571924,10067304,10624360,514,3800,-1190,-723,1960,-255,-2434,4487,20,93,858
83936,10067196,10572556,10067501,10624557,254,3800,-966,-252,2183,-890,-4587,3826,28,114,860
84937,10067308,10573172,10067698,10624754,617,3800,-801,-92,2156,1702,-2107,1850,28,114,860
85937,10067416,10573916,10067895,10624951,681,3800,-732,-3,2081,1205,-1469,2292,25,129,860
86939,10067556,10574596,10068092,10625148,506,3800,-633,27,2115,833,-2779,2379,25,129,860
87939,10067664,10575388,10068289,10625345,745,3800,-361,-12,2157,897,-659,2842,24,123,861
88940,10067772,10576092,10068486,10625542,784,3800,-158,-165,2170,1467,-2886,704,24,123,861
89941,10067904,10576928,10068683,10625739,663,3800,-16,-371,2081,2193,-1212,1006,40,141,863
90942,10068024,10577692,10068880,10625936,772,3800,222,-412,2049,1375,-632,2808,40,141,863
91943,10068140,10578692,10069077,10626133,832,3800,411,-409,2030,1458,-3396,1242,26,162,860
92951,10068264,10579608,10069504,10626560,916,3800,437,-471,1865,3040,-2636,-65,26,162,860
93945,10068380,10580484,10069701,10626757,1002,3800,408,-379,1725,2372,-1772,1043,40,168,862
94947,10068472,10581496,10069898,10626954,1198,3800,451,-196,1515,3160,-762,1825,40,168,862
95947,10068568,10582476,10070095,10627151,1218,3800,610,102,1359,3242,-2074,2336,43,177,864
96949,10068760,10583596,10070292,10627348,621,3800,784,427,1255,3211,-1256,2517,43,177,864
97949,10068912,10584632,10070489,10627545,891,3800,835,738,1162,3536,-2015,1695,34,180,862
98950,10069064,10585684,10070686,10627742,910,3800,733,923,1038,3946,-3222,115,34,180,862
99951,10069240,10586688,10070883,10627939,770,3800,677,1054,919,3434,-2216,849,47,177,865
100953,10069388,10587676,10071080,10628136,967,3800,814,1333,855,2885,-986,2765,47,177,865
101953,10069536,10588716,10071277,10628333,989,3800,1011,1691,713,3760,-4210,2151,31,181,864
102955,10069716,10589800,10071474,10628530,796,3800,1171,2009,432,3742,-3450,1918,31,181,864
103956,10069868,10590764,10071671,10628727,992,3800,1191,1916,74,3477,-151,-400,53,181,863
104957,10070060,10591688,10071868,10628924,744,3800,1082,1485,-190,1764,-1003,-1897,53,181,863
105957,10070224,10592632,10072065,10629121,934,3800,1175,1457,-236,-2,-1578,3448,50,182,864
106959,10070396,10593512,10072262,10629318,896,3800,1456,1745,-246,-336,-1332,3894,50,182,864
107959,10070568,10594576,10072459,10629515,907,3800,1607,1775,-304,-1430,805,1093,36,180,864
108960,10070732,10595540,10072656,10629712,972,3800,1660,1615,-348,-2034,441,2333,36,180,864
109961,10070912,10596508,10072853,10629909,879,3800,1712,1684,-459,-1188,1463,4589,35,183,864
110963,10071068,10597472,10073050,10630106,1047,3800,1646,1784,-705,-957,3410,3489,35,183,864
111963,10071256,10598412,10073247,10630303,852,3800,1559,1636,-1124,-658,969,4770,53,181,864
112965,10071472,10599432,10073444,10630500,669,3800,1695,1270,-1602,-827,-55,6936,53,181,864
113965,10071644,10600352,10073641,10630697,955,3800,2232,1345,-1870,-1683,-304,12487,37,165,862
114966,10071792,10601196,10073838,10630894,1128,3800,2838,1794,-1843,-806,-545,12521,37,165,862
115967,10071972,10602128,10074035,10631091,935,3800,2642,162,-1611,-663,-94,-4388,35,173,864
116969,10072140,10603020,10074232,10631288,1024,3800,2318,-2666,-1301,2151,-1341,-1602,35,173,864
117970,10072288,10603940,10074429,10631485,1170,3800,2755,-3375,-1147,7137,-2834,15340,32,173,863
118971,10072500,10604900,10074626,10631682,764,3800,2893,-2929,-1359,8693,-44,6939,32,173,863
119972,10072632,10606016,10074823,10631879,1293,3800,2554,-1551,-1276,2938,2020,10629,33,182,862
120973,10072792,10607004,10075020,10632076,1135,3800,2124,187,-859,2186,2254,11991,33,182,862
121974,10072932,10608036,10075217,10632273,1286,3800,1586,1374,-357,3411,2618,7492,29,196,865
122975,10073072,10609088,10075414,10632470,1311,3800,782,1685,-126,7917,1951,4747,29,196,865
123976,10073192,10610088,10075611,10632667,1470,3800,214,2438,90,8378,851,11330,46,204,862
124964,10073332,10611388,10075808,10632864,1371,3592,1,2852,506,6086,1259,7977,46,204,862
125978,10073456,10612540,10076005,10633061,1503,3800,-10,2631,982,4849,1364,7266,33,221,864
126979,10073568,10613656,10076202,10633258,1616,3800,348,2319,1591,2787,-966,10997,33,221,864
127980,10073688,10614696,10076399,10633455,1600,3800,718,2172,2285,1792,-1426,9769,24,212,865
128968,10073852,10615732,10076596,10633652,1340,3695,482,1253,2823,2225,2571,979,24,212,865
129981,10073992,10616608,10076793,10633849,1515,3800,-82,127,3240,1740,2351,2029,39,193,862
130970,10074112,10617540,10076990,10634046,1675,3730,-489,-354,3572,1803,-227,6441,39,193,862
131983,10074248,10618316,10077187,10634243,1603,3800,-857,-412,3635,1150,1511,4787,45,163,862
132984,10074364,10619040,10077384,10634440,1764,3800,-1558,-334,3327,557,2460,3786,45,163,862
133985,10074500,10619800,10077581,10634637,1666,3800,-2460,401,2848,151,4236,8494,46,160,859
134987,10074616,10620500,10077778,10634834,1827,3800,-3698,1226,1915,1418,7346,4834,46,160,859
135988,10074740,10621212,10077975,10635031,1810,3800,-5068,1455,1128,-2533,34,2569,27,137,856
136988,10074860,10621812,10078172,10635228,1869,3800,-5581,1684,855,-5913,-2735,12113,27,137,856
137989,10074988,10622388,10078369,10635425,1850,3800,-5189,737,947,-6190,-4905,7901,34,116,856
138990,10075100,10622932,10078566,10635622,1989,3800,-4329,-1528,1030,-4371,-2175,7154,34,116,856
139991,10075212,10623436,10078763,10635819,2026,3800,-3229,-4319,996,-2859,-802,8159,40,94,855
140992,10075360,10623860,10078960,10636016,1824,3800,-2309,-6685,691,298,-1111,6311,40,94,855
141993,10075496,10624360,10079157,10636213,1926,3800,-1887,-7834,349,-205,592,5819,31,90,853
142995,10075628,10624712,10079354,10636410,1980,3800,-1816,-7752,366,-2640,1990,5612,31,90,853
143995,10075752,10625068,10079551,10636607,2063,3800,-1672,-6858,773,-1770,2532,8358,39,69,853
144996,10075908,10625384,10079748,10636804,1882,3800,-1593,-5839,845,4386,1405,7067,39,69,853
145997,10076016,10625680,10079945,10637001,2222,3800,-1749,-4835,726,3196,-5482,7966,19,50,850
146998,10076132,10626004,10080142,10637198,2208,3800,-1658,-3638,848,-1494,-2593,12073,19,50,850
147999,10076264,10626256,10080339,10637395,2137,3800,-1321,-3158,895,-641,-176,7896,19,62,850
149000,10076396,10626504,10080536,10637592,2167,3800,-842,-3792,767,436,-1254,5567,19,62,850
150001,10076548,10626732,10080733,10637789,2063,3800,-343,-4448,601,2388,-1563,6700,23,49,849
151003,10076696,10626972,10080930,10637986,2109,3800,-2,-4910,531,2485,276,4324,23,49,849
152004,10076816,10627196,10081127,10638183,2319,3800,358,-4962,671,472,1858,5521,24,45,848
153004,10076928,10627436,10081324,10638380,2407,3800,797,-4981,876,-611,2080,5200,24,45,848
154005,10077044,10627640,10081521,10638577,2419,3800,1153,-4914,1026,-733,1858,4751,26,39,848
155006,10077156,10627884,10081718,10638774,2482,3800,1211,-4783,1240,-1435,-4269,2884,26,39,848
156007,10077248,10628136,10081915,10638971,2654,3800,1066,-4685,1302,439,-3742,2599,15,41,847
157008,10077360,10628400,10082112,10639168,2568,3800,957,-4424,1312,626,-1691,3152,15,41,847
158009,10077492,10628672,10082309,10639365,2471,3800,870,-4096,1497,-260,-3822,2528,20,64,846
159011,10077608,10628972,10082506,10639562,2608,3800,964,-3636,1702,1309,-1118,5288,20,64,846
160011,10077784,10629216,10082703,10639759,2243,3800,1062,-3621,1854,1645,-5006,2347,29,46,846
161012,10077920,10629508,10082900,10639956,2521,3800,1055,-3789,2087,640,-6773,2086,29,46,846
162013,10078076,10629788,10083097,10640153,2415,3800,1084,-3617,2367,962,-1671,4627,25,48,847
163015,10078240,10630092,10083294,10640350,2380,3800,1144,-3346,2646,923,259,4190,25,48,847
164015,10078404,10630404,10083491,10640547,2396,3800,1167,-3120,3023,-255,763,3737,31,65,847
165016,10078568,10630716,10083688,10640744,2412,3800,1021,-3171,3342,109,700,2145,31,65,847
166017,10078724,10631044,10083885,10640941,2481,3800,742,-3296,3519,610,525,1294,46,60,849
167019,10078900,10631356,10084082,10641138,2366,3800,476,-3327,3704,-1106,366,2556,46,60,849
168020,10079064,10631680,10084279,10641335,2456,3800,228,-3206,3860,-1489,1064,2599,49,54,847
169020,10079252,10631972,10084476,10641532,2311,3800,-171,-2958,3846,-2032,1380,2054,49,54,847
170021,10079460,10632316,10084673,10641729,2182,3800,-676,-2305,3817,-2744,197,4499,53,59,847
171022,10079616,10632708,10084870,10641926,2526,3800,-1204,-1383,3592,-1945,-177,5262,53,59,847
172023,10079804,10633084,10085067,10642123,2331,3800,-1575,-630,3324,-1958,-15,5107,49,68,850
173012,10079980,10633484,10085264,10642320,2417,3777,-1708,-262,3080,-1470,422,5033,49,68,850
174013,10080156,10633972,10085461,10642517,2427,3100,-1690,-716,2784,469,-171,1551,31,78,849
175014,10080328,10634476,10085658,10642714,2464,2867,-1474,-1473,2601,-133,1022,2235,31,78,849
176021,10080568,10635004,10085888,10642944,2035,2587,-1095,-2132,2683,-1618,1815,1915,39,102,850
177016,10080796,10635532,10086085,10643141,2098,2443,-646,-2818,2838,-39,683,551,39,102,850
178016,10081000,10636036,10086282,10643338,2246,2459,-73,-3347,2870,741,611,2020,40,106,856
179018,10081228,10636568,10086479,10643535,2083,2139,571,-3696,2878,563,-91,2869,40,106,856
180018,10081472,10637124,10086676,10643732,1963,1832,965,-3743,2980,2340,-722,2860,53,99,860
181019,10081700,10637676,10086873,10643929,2051,1702,991,-3687,3078,2283,32,1354,53,99,860
182020,10081948,10638272,10087070,10644126,1904,1254,818,-3736,3281,187,-1160,728,56,101,864
183022,10082212,10638764,10087267,10644323,1776,1775,665,-3968,3388,243,-1650,-236,56,101,864
184023,10082448,10639360,10087464,10644520,1935,951,656,-3762,3381,290,-1947,2568,50,102,866
185024,10082672,10639900,10087661,10644717,1999,1151,698,-3053,3304,720,-1044,3907,50,102,866
186025,10082928,10640492,10087858,10644914,1774,654,548,-2357,3238,939,-806,1506,42,91,867
187026,10083188,10641040,10088055,10645111,1722,776,252,-1769,3166,293,251,1654,42,91,867
188027,10083428,10641520,10088252,10645308,1829,1076,-31,-1252,3070,-138,813,1277,63,104,868
189028,10083672,10642024,10088449,10645505,1785,792,-235,-602,3055,122,702,1928,63,104,868
190029,10083936,10642532,10088646,10645702,1631,632,-350,-72,2917,1094,752,907,46,85,870
191030,10084172,10643012,10088843,10645899,1789,682,-529,296,2801,1069,-2633,-68,46,85,870
192031,10084432,10643536,10089040,10646096,1613,265,-585,704,2660,1521,-218,1120,48,96,869
193032,10084704,10644060,10089237,10646293,1506,121,-465,1210,2474,1118,2770,2136,48,96,869
194033,10084956,10644476,10089434,10646490,1607,701,-411,1333,2271,1771,1943,-1436,63,99,871
195034,10085220,10644944,10089631,10646687,1504,256,-441,1212,2209,1355,-905,-1348,63,99,871
196035,10085472,10645400,10089828,10646884,1556,218,-358,1423,2119,2512,219,961,44,89,873
197036,10085676,10645824,10090025,10647081,1854,319,-180,1729,1970,2824,1416,467,44,89,873
198036,10085880,10646276,10090222,10647278,1851,32,-1,2032,1947,1288,973,423,38,88,873
199038,10086152,10646700,10090419,10647475,1394,107,26,1963,2024,1351,-575,-1600,38,88,873
200039,10086376,10647068,10090616,10647672,1683,382,30,2138,2139,1694,-1350,443,45,83,871
201040,10086600,10647440,10090813,10647869,1672,280,-5,2802,2278,1586,-797,2038,45,83,871
202041,10086844,10647776,10091010,10648066,1527,445,-177,3489,2354,1625,-919,251,37,74,873
203042,10087068,10648136,10091207,10648263,1640,223,-336,4147,2494,524,-284,1413,37,74,873
204043,10087288,10648416,10091404,10648460,1656,687,-390,4327,2631,173,-116,-1066,55,62,872
205044,10087600,10648640,10091601,10648657,1032,1025,-242,4349,2829,-1869,-991,1144,55,62,872
206045,10087876,10648884,10091798,10648854,1223,879,41,4523,3001,-766,-1778,2039,39,47,873
207046,10088136,10649136,10091995,10649051,1296,805,184,4763,3099,452,-1871,1581,39,47,873
208047,10088400,10649344,10092192,10649248,1242,1075,228,5015,3110,639,-1379,2124,59,36,873
209048,10088640,10649564,10092389,10649445,1374,990,184,5195,3015,283,-1391,2108,59,36,873
210049,10088932,10649720,10092586,10649642,1008,1408,195,5523,2896,-1030,-819,3391,60,41,873
211050,10089252,10649836,10092783,10649839,779,1694,168,5391,2839,-1440,-2220,1472,60,41,873
212051,10089500,10649984,10092980,10650036,1208,1515,277,4974,2810,-1034,-3513,2756,62,34,870
213052,10089740,10650088,10093177,10650233,1240,1831,489,4338,2758,-1784,-3005,2870,62,34,870
214052,10090000,10650232,10093374,10650430,1087,1605,643,3963,2716,-2041,-2173,2575,41,27,869
215054,10090300,10650412,10093571,10650627,793,1387,808,3777,2616,-2260,-268,2848,41,27,869
216055,10090516,10650616,10093768,10650824,1311,1234,937,3393,2387,-2046,-356,2496,46,30,868
217056,10090748,10650788,10093965,10651021,1195,1445,1158,2652,1897,-1199,1939,2485,46,30,868
218057,10090980,10650948,10094162,10651218,1181,1536,1361,1328,1168,-1841,208,3809,38,38,872
219058,10091192,10651116,10094359,10651415,1300,1499,1625,197,285,-2643,259,6692,38,38,872
220059,10091444,10651272,10094556,10651612,1026,1592,1944,-1388,-491,-3221,1383,4429,50,29,870
221059,10091672,10651420,10094753,10651809,1163,1663,2238,-3095,-1197,-1829,921,4732,50,29,870
222060,10091896,10651564,10094950,10652006,1177,1712,2436,-4398,-1845,-1041,257,6321,46,31,869
223062,10092084,10651736,10095147,10652203,1407,1548,2310,-4856,-2402,-2163,76,5697,46,31,869
224063,10092308,10651904,10095344,10652400,1170,1585,1793,-4442,-2831,-2922,1398,5639,53,38,867
225064,10092496,10652068,10095541,10652597,1400,1625,1042,-3400,-3212,-879,2561,6672,53,38,867
226065,10092724,10652264,10095738,10652794,1137,1425,383,-2222,-3669,2308,834,6685,43,26,868
227066,10092948,10652384,10095935,10652991,1150,1934,-26,-1214,-3891,1649,-1571,7678,43,26,868
228067,10093140,10652500,10096132,10653188,1353,1996,-340,-524,-3827,2062,-372,5709,52,18,868
229068,10093340,10652628,10096329,10653385,1302,1951,-595,-624,-3495,3243,-874,3640,52,18,868
230068,10093580,10652732,10096526,10653582,1034,2142,-522,-1510,-3182,2649,-3247,4110,29,22,867
231069,10093784,10652860,10096723,10653779,1256,2022,-171,-2819,-3051,3129,-1131,4634,29,22,867
232071,10094012,10652980,10096920,10653976,1093,2106,100,-4007,-2916,2014,1424,3553,31,23,866
233072,10094196,10653104,10097117,10654173,1375,2113,166,-4643,-2568,714,436,4716,31,23,866
234073,10094400,10653256,10097314,10654370,1247,1959,107,-4928,-2286,2169,137,4391,40,22,864
235074,10094548,10653448,10097511,10654567,1620,1711,-128,-5398,-2255,5149,714,1673,40,22,864
236075,10094696,10653596,10097708,10654764,1641,2008,-498,-5731,-2220,7028,747,3700,28,25,864
237076,10094836,10653776,10097905,10654961,1717,1815,-947,-5291,-2106,5232,-999,6980,28,25,864
238077,10094984,10653912,10098102,10655158,1689,2117,-1374,-4753,-1930,7001,-6464,4721,39,36,866
239078,10095144,10654044,10098299,10655355,1631,2172,-1271,-4137,-2081,8417,215,8738,39,36,866
240079,10095284,10654180,10098496,10655552,1782,2173,-856,-3534,-2203,5555,1710,8983,19,31,865
241080,10095476,10654352,10098693,10655749,1459,1959,-707,-3197,-2050,4952,1,5591,19,31,865
242080,10095644,10654556,10098890,10655946,1623,1756,-1125,-3110,-1454,2920,-5274,2624,41,38,864
243082,10095824,10654728,10099087,10656143,1555,1968,-1506,-2458,-894,3991,1997,8410,41,38,864
244082,10095980,10654844,10099284,10656340,1724,2354,-1746,-1660,-365,3573,-93,6764,35,18,865
245083,10096168,10654964,10099481,10656537,1529,2363,-1956,-1380,51,5301,-5436,2645,35,18,865
246084,10096376,10655104,10099678,10656734,1400,2264,-1834,-1098,163,6329,644,6982,24,17,863
247086,10096548,10655216,10099875,10656931,1637,2476,-1546,-752,332,4689,-2017,5872,24,17,863
248087,10096712,10655344,10100072,10657128,1702,2406,-1323,-107,657,4904,-1407,6781,38,27,862
249088,10096884,10655456,10100269,10657325,1663,2545,-1212,688,1062,4425,-2282,6143,38,27,862
250089,10097060,10655564,10100466,10657522,1648,2609,-1046,1246,1461,2896,-2658,5450,25,30,861
251090,10097240,10655684,10100663,10657719,1632,2568,-698,1640,1875,1780,-1619,6058,25,30,861
252091,10097400,10655808,10100860,10657916,1773,2576,-328,1869,2224,2198,-997,4821,22,20,861
253092,10097584,10655928,10101057,10658113,1630,2635,-63,2094,2481,2709,-1662,5053,22,20,861
254093,10097744,10656032,10101254,10658310,1796,2776,153,2522,2514,2142,-81,6421,29,20,860
255094,10097904,10656120,10101451,10658507,1813,2924,171,2603,2505,263,-730,3009,29,20,860
256095,10098064,10656204,10101648,10658704,1831,2999,108,1930,2613,737,-659,820,40,9,857
257096,10098220,10656324,10101845,10658901,1875,2809,363,1609,2742,1359,-2421,7756,40,9,857
258097,10098396,10656424,10102042,10659098,1759,2977,747,1449,2753,1533,-2839,6229,27,21,855
259107,10098564,10656520,10102272,10659328,1837,3061,990,910,2577,178,-827,4085,27,21,855
260099,10098720,10656604,10102469,10659525,1931,3186,1198,331,2224,-834,-627,6696,45,10,857
261100,10098880,10656740,10102666,10659722,1922,2889,1317,-325,1751,-1399,-1574,5644,45,10,857
262101,10099084,10656876,10102863,10659919,1645,2916,1292,-668,1283,-1313,-668,6059,25,16,855
263102,10099248,10656992,10103060,10660116,1911,3077,1121,-503,866,-878,965,6066,25,16,855
264103,10099444,10657120,10103257,10660313,1711,3034,899,-70,640,-1066,-391,6043,47,34,857
265104,10099648,10657248,10103454,10660510,1659,3064,764,142,491,-7,-2119,6284,47,34,857
266105,10099872,10657384,10103651,10660707,1523,3042,646,31,308,321,-2273,5147,28,16,855
267106,10100096,10657524,10103848,10660904,1512,3042,594,-245,145,226,-1436,5007,28,16,855
268107,10100292,10657668,10104045,10661101,1688,3041,543,-570,54,-91,-472,4176,41,36,856
269108,10100544,10657864,10104242,10661298,1315,2718,385,-670,-76,371,-60,4293,41,36,856
270108,10100756,10658096,10104439,10661495,1559,2477,125,-834,-142,1168,753,2101,42,46,858
271110,10100964,10658296,10104636,10661692,1579,2677,-197,-948,-139,2100,1854,1304,42,46,858
272110,10101196,10658512,10104833,10661889,1415,2570,-430,-820,-49,1733,-242,3144,38,45,861
273112,10101416,10658756,10105030,10662086,1481,2374,-441,-391,78,1636,-3178,4716,38,45,861
274113,10101648,10658996,10105227,10662283,1391,2381,-399,-51,255,1511,-315,4233,47,52,861
275114,10101848,10659256,10105424,10662480,1590,2229,-480,-183,524,1285,-1090,2063,47,52,861
276114,10102040,10659564,10105621,10662677,1643,1881,-477,-256,802,1611,-1211,4937,39,56,863
277116,10102248,10659820,10105818,10662874,1539,2181,-406,-649,956,1797,-1445,2608,39,56,863
278116,10102472,10660024,10106015,10663071,1427,2503,-378,-1170,976,2143,27,2545,49,47,861
279118,10102680,10660288,10106212,10663268,1524,2099,-442,-1300,935,2039,-616,3974,49,47,861
280119,10102872,10660520,10106409,10663465,1627,2285,-575,-1261,901,380,221,3125,50,44,863
281120,10103100,10660788,10106606,10663662,1388,2028,-694,-1289,991,-1457,-415,2985,50,44,863
282121,10103260,10661032,10106803,10663859,1830,2159,-676,-1355,1003,-4,46,3742,52,56,865
283122,10103444,10661268,10107000,10664056,1687,2192,-611,-1249,906,670,-72,4146,52,56,865
284123,10103628,10661532,10107197,10664253,1693,1988,-584,-1246,825,-624,768,2874,35,57,866
285124,10103824,10661792,10107394,10664450,1619,1986,-563,-1234,682,-336,160,3761,35,57,866
286125,10103992,10662060,10107591,10664647,1808,1905,-512,-1137,416,40,670,4444,26,50,863
287126,10104180,10662352,10107788,10664844,1687,1714,-471,-1126,183,-744,433,3459,26,50,863
288126,10104356,10662612,10107985,10665041,1772,1887,-422,-1215,39,-735,-685,3336,29,57,865
289128,10104536,10662860,10108182,10665238,1756,1940,-358,-1380,-28,-565,-502,3123,29,57,865
290129,10104688,10663108,10108379,10665435,1951,1918,-323,-1436,-49,-461,20,3479,20,36,865
291130,10104860,10663364,10108576,10665632,1838,1842,-290,-1155,42,-142,-215,5038,20,36,865
292130,10105008,10663604,10108773,10665829,2010,1924,-334,-771,235,670,-916,4530,37,51,864
293132,10105192,10663840,10108970,10666026,1792,1932,-406,-491,386,1598,-1097,4663,37,51,864
294132,10105352,10664080,10109167,10666223,1958,1888,-391,-272,444,1453,-10,5822,44,38,864
295134,10105528,10664288,10109364,10666420,1868,2084,-322,-285,492,908,-805,4291,44,38,864
296135,10105676,10664504,10109561,10666617,2066,2026,-207,-380,610,1045,-357,4829,43,48,864
297136,10105884,10664724,10109758,10666814,1686,1992,-34,-419,873,987,-1311,4810,43,48,864
298137,10106048,10664936,10109955,10667011,1976,2035,115,-377,1088,1908,-764,4401,44,42,862
299138,10106228,10665108,10110152,10667208,1885,2296,240,-239,1183,1653,447,4191,44,42,862
300139,10106388,10665280,10110349,10667405,2027,2308,276,-152,1287,956,-1,3087,23,45,862
301140,10106564,10665488,10110546,10667602,1936,2079,257,-147,1454,532,-577,2803,23,45,862
302141,10106708,10665700,10110743,10667799,2161,2048,238,-81,1632,585,-568,3055,38,49,860
303142,10106880,10665928,10110940,10667996,1998,1934,257,120,1707,1237,-221,3574,38,49,860
304143,10107068,10666140,10111137,10668193,1903,2028,325,494,1747,927,-323,4439,43,38,862
305144,10107248,10666356,10111334,10668390,1961,1995,384,886,1784,850,-263,4512,43,38,862
306145,10107424,10666568,10111531,10668587,1995,2014,401,1238,1788,742,410,4371,44,52,864
307146,10107596,10666800,10111728,10668784,2032,1874,422,1615,1806,258,318,4838,44,52,864
308146,10107760,10667064,10111925,10668981,2098,1645,472,1925,1895,-225,-934,4452,26,57,863
309147,10107916,10667348,10112122,10669178,2167,1482,507,2218,1967,607,557,4177,26,57,863
310148,10108088,10667672,10112319,10669375,2078,1177,515,2473,2070,409,153,3902,35,45,863
311149,10108228,10667920,10112516,10669572,2304,1629,536,2671,2234,-157,-449,3788,35,45,863
312150,10108400,10668100,10112713,10669769,2116,2062,571,2776,2433,-975,-1226,3452,47,42,863
313151,10108528,10668272,10112910,10669966,2422,2124,496,2569,2540,-650,-1052,1633,47,42,863
314153,10108688,10668464,10113107,10670163,2239,2001,481,2230,2568,-75,-632,2604,39,41,863
315154,10108892,10668688,10113304,10670360,1962,1789,677,2277,2541,929,1138,5441,39,41,863
316155,10109084,10668932,10113501,10670557,2040,1645,816,2089,2554,-18,710,1788,36,39,859
317156,10109288,10669208,10113698,10670754,1962,1410,963,1900,2611,-396,303,4013,36,39,859
318157,10109460,10669456,10113895,10670951,2174,1562,1167,1922,2710,-488,-26,4985,33,52,864
319158,10109648,10669716,10114092,10671148,2079,1460,1235,1791,2811,-865,479,2290,33,52,864
320159,10109848,10670064,10114289,10671345,2004,844,1242,1665,2877,-861,655,3730,53,56,866
321160,10110016,10670384,10114486,10671542,2218,965,1294,1616,2847,-1044,471,4544,53,56,866
322161,10110180,10670676,10114683,10671739,2258,1099,1317,1437,2746,-1837,-124,3545,32,55,864
323162,10110368,10670992,10114880,10671936,2112,896,1312,1121,2605,-1342,302,3190,32,55,864
324163,10110540,10671312,10115077,10672133,2224,818,1325,853,2435,-1047,250,3936,39,66,865
325164,10110672,10671604,10115274,10672330,2504,952,1323,767,2247,-476,825,4635,39,66,865
326165,10110852,10671880,10115471,10672527,2212,1017,1226,799,2030,563,2032,4053,29,61,867
327166,10110996,10672180,10115668,10672724,2462,822,1036,837,1810,239,2430,3218,29,61,867
328167,10111160,10672464,10115865,10672921,2352,883,902,959,1654,-353,1471,4594,33,56,865
329168,10111348,10672744,10116062,10673118,2207,872,841,1020,1507,-712,1296,4076,33,56,865
330169,10111528,10673004,10116259,10673315,2266,969,752,1004,1296,-61,1873,4258,42,43,865
331170,10111704,10673252,10116456,10673512,2300,1022,610,973,1106,113,1617,3842,42,43,865
332171,10111880,10673516,10116653,10673709,2310,892,482,939,985,239,1509,4132,35,45,867
333172,10112052,10673788,10116850,10673906,2347,809,389,969,931,627,2035,4514,35,45,867
334173,10112224,10674052,10117047,10674103,2359,830,333,989,907,689,2259,3837,34,41,865
335174,10112404,10674284,10117244,10674300,2317,1015,240,953,838,1072,1898,4129,34,41,865
336175,10112592,10674488,10117441,10674497,2272,1186,115,877,729,1278,1163,3714,34,52,866
337176,10112784,10674676,10117638,10674694,2251,1290,-118,885,593,1368,1303,3973,34,52,866
338177,10112976,10674840,10117835,10674891,2254,1455,-464,1033,444,832,1641,3336,44,28,865
339178,10113164,10675012,10118032,10675088,2284,1416,-873,1185,288,71,841,3497,44,28,865
340179,10113348,10675188,10118229,10675285,2315,1400,-1207,1445,134,-451,-1225,4934,49,42,865
341180,10113524,10675356,10118426,10675482,2376,1463,-1420,1538,-76,-513,-2611,5432,49,42,865
342188,10113720,10675528,10118656,10675712,2267,1463,-1584,1492,-346,-313,-2068,5479,34,39,864
343182,10113856,10675716,10118853,10675909,2669,1367,-1717,1363,-601,-548,-1171,5762,34,39,864
344183,10114012,10675908,10119050,10676106,2562,1346,-1810,1052,-709,-957,-1955,5139,23,29,861
345184,10114180,10676072,10119247,10676303,2501,1535,-1792,486,-761,239,-2361,5493,23,29,861
346185,10114328,10676248,10119444,10676500,2649,1469,-1759,-116,-795,897,-2590,5318,42,31,860
347186,10114468,10676476,10119641,10676697,2725,1131,-1800,-449,-772,306,-2582,5504,42,31,860
348187,10114616,10676716,10119838,10676894,2697,1037,-1920,-410,-724,211,-3182,5708,42,34,861
349188,10114764,10676952,10120035,10677091,2720,1045,-2023,-78,-764,356,-2868,6185,42,34,861
350189,10114908,10677164,10120232,10677288,2769,1188,-2040,354,-818,146,-2961,6098,33,42,861
351190,10115068,10677348,10120429,10677485,2686,1369,-1980,670,-828,175,-2939,5489,33,42,861
352191,10115232,10677556,10120626,10677682,2677,1214,-1838,754,-826,149,-2870,6041,44,35,862
353192,10115400,10677752,10120823,10677879,2666,1289,-1603,587,-862,-36,-3001,5707,44,35,862
354193,10115552,10677984,10121020,10678076,2786,1049,-1283,272,-926,-648,-3052,5941,42,42,861
355194,10115720,10678188,10121217,10678273,2700,1221,-991,-150,-1006,-1173,-2833,5151,42,42,861
356195,10115864,10678376,10121414,10678470,2875,1325,-773,-470,-1032,-1974,-2409,5787,28,38,860
357196,10116012,10678512,10121611,10678667,2873,1677,-630,-699,-1094,-2167,-2101,5333,28,38,860
358197,10116176,10678644,10121808,10678864,2789,1730,-557,-842,-1313,-1505,-1652,5478,21,38,862
359198,10116320,10678756,10122005,10679061,2938,1893,-475,-919,-1561,-1382,-2124,5826,21,38,862
360199,10116456,10678880,10122202,10679258,3016,1850,-344,-999,-1750,-713,-2401,5738,39,21,858
361200,10116616,10679004,10122399,10679455,2883,1882,-193,-1181,-1907,247,-2356,4987,39,21,858
362201,10116772,10679120,10122596,10679652,2927,1967,-45,-1279,-2010,529,-2277,5246,41,21,856
363202,10116964,10679236,10122793,10679849,2705,2003,40,-1275,-2054,532,-2247,4490,41,21,856
364203,10117148,10679360,10122990,10680046,2762,1985,60,-1191,-2022,580,-1831,4178,32,18,856
365204,10117344,10679492,10123187,10680243,2688,1965,42,-1050,-1917,570,-2293,3984,32,18,856
366205,10117540,10679608,10123384,10680440,2690,2100,43,-835,-1785,765,-1960,4063,48,25,857
367206,10117744,10679716,10123581,10680637,2639,2189,39,-660,-1638,673,-2347,3756,48,25,857
368207,10117936,10679840,10123778,10680834,2717,2121,45,-630,-1609,1224,-1790,3373,49,31,855
369208,10118132,10679952,10123975,10681031,2693,2234,89,-711,-1625,645,-1963,3587,49,31,855
370209,10118336,10680080,10124172,10681228,2641,2164,146,-874,-1678,855,-1342,3514,52,22,857
371210,10118572,10680196,10124369,10681425,2425,2276,182,-1005,-1765,1579,-309,3614,52,22,857
372211,10118800,10680328,10124566,10681622,2462,2204,176,-1036,-1801,1236,-367,3631,41,30,857
373212,10119036,10680448,10124763,10681819,2396,2313,169,-1094,-1785,737,486,3413,41,30,857
374213,10119268,10680588,10124960,10682016,2407,2213,131,-1141,-1706,440,225,2699,35,21,858
375214,10119484,10680692,10125157,10682213,2500,2480,70,-1178,-1563,262,-372,2613,35,21,858
376215,10119716,10680844,10125354,10682410,2385,2200,40,-1092,-1501,1520,-221,2968,36,22,858
377216,10119988,10680980,10125551,10682607,2104,2326,37,-1005,-1496,1444,-112,2684,36,22,858
378217,10120260,10681112,10125748,10682804,2072,2380,43,-917,-1484,1045,-696,2567,38,37,855
379218,10120504,10681244,10125945,10683001,2228,2410,78,-699,-1483,1253,-295,3556,38,37,855
380219,10120800,10681372,10126142,10683198,1860,2465,80,-524,-1471,1024,-151,2414,61,33,859
381220,10121076,10681500,10126339,10683395,1951,2495,89,-596,-1422,840,294,1872,61,33,859
382221,10121356,10681636,10126536,10683592,1891,2473,127,-742,-1368,697,337,2457,63,32,859
383222,10121684,10681800,10126733,10683789,1534,2313,176,-870,-1269,73,426,2039,63,32,859
384223,10121960,10681952,10126930,10683986,1826,2408,164,-1057,-1170,286,34,1431,50,40,860
385224,10122236,10682104,10127127,10684183,1792,2428,159,-1104,-1144,900,-88,2745,50,40,860
386225,10122532,10682248,10127324,10684380,1624,2501,156,-994,-1138,836,-522,2586,69,28,863
387226,10122864,10682428,10127521,10684577,1340,2285,106,-965,-1136,555,757,2102,69,28,863
388227,10123144,10682540,10127718,10684774,1630,2747,29,-998,-1112,161,59,2102,51,32,860
389228,10123408,10682704,10127915,10684971,1701,2438,-18,-1003,-1121,688,-190,2906,51,32,860
390229,10123736,10682888,10128112,10685168,1245,2318,-12,-1065,-1070,249,-391,2568,54,34,862
391230,10124032,10683040,10128309,10685365,1402,2538,23,-1284,-1016,645,152,2036,54,34,862
392231,10124296,10683192,10128506,10685562,1574,2559,70,-1582,-973,676,558,2216,51,32,861
393232,10124612,10683360,10128703,10685759,1197,2472,60,-1807,-855,-381,-166,2146,51,32,861
394233,10124904,10683512,10128900,10685956,1306,2593,-1,-1894,-790,359,-316,2433,67,27,861
395234,10125176,10683676,10129097,10686153,1399,2532,-100,-1808,-798,573,-273,2676,67,27,861
396235,10125480,10683824,10129294,10686350,1153,2655,-197,-1745,-822,478,-690,2361,59,43,862
397236,10125756,10683996,10129491,10686547,1294,2516,-191,-1714,-825,366,5,3433,59,43,862
398237,10126028,10684136,10129688,10686744,1286,2742,-147,-1976,-815,350,-339,1892,64,27,862
399238,10126320,10684304,10129885,10686941,1120,2579,-76,-2327,-799,480,110,2674,64,27,862
400239,10126588,10684460,10130082,10687138,1240,2673,-25,-2638,-746,149,-108,2090,44,26,861
401240,10126848,10684616,10130279,10687335,1262,2691,-72,-2881,-644,-352,-256,2256,44,26,861
402241,10127064,10684772,10130476,10687532,1530,2710,-67,-2862,-567,73,-472,2925,47,22,862
403242,10127352,10684908,10130673,10687729,1041,2862,-158,-2883,-503,178,-59,2246,47,22,862
404243,10127580,10685040,10130870,10687926,1402,2917,-204,-2842,-416,272,-388,2391,44,22,861
405244,10127868,10685188,10131067,10688123,988,2838,-189,-2894,-346,410,-488,3153,44,22,861
406245,10128100,10685324,10131264,10688320,1323,2941,-112,-3033,-279,203,53,2324,42,22,861
407246,10128352,10685480,10131461,10688517,1175,2834,-42,-3325,-204,346,-25,2317,42,22,861
408247,10128620,10685640,10131658,10688714,1045,2826,13,-3469,-133,498,-158,3058,40,25,861
409248,10128872,10685800,10131855,10688911,1120,2844,54,-3626,-12,-202,144,2692,40,25,861
410249,10129132,10685964,10132052,10689108,1044,2833,56,-3768,90,34,-112,2739,40,34,859
411250,10129384,10686128,10132249,10689305,1070,2849,66,-3816,146,406,44,3498,40,34,859
412251,10129664,10686296,10132446,10689502,859,2836,26,-3909,184,571,118,2939,45,39,860
413252,10129932,10686448,10132643,10689699,903,2957,-9,-3947,206,743,-454,3299,45,39,860
414253,10130196,10686596,10132840,10689896,899,3005,-6,-4009,262,302,-249,3871,46,42,861
415254,10130456,10686796,10133037,10690093,897,2678,-52,-4141,311,471,-283,2610,46,42,861
416255,10130684,10686976,10133234,10690290,1084,2812,-79,-4260,398,167,-682,3621,42,49,861
417256,10130924,10687188,10133431,10690487,990,2606,-42,-4137,527,229,-413,5339,42,49,861
418257,10131172,10687376,10133628,10690684,919,2760,-35,-3912,538,1741,-238,4100,43,45,863
419258,10131404,10687572,10133825,10690881,1003,2712,-169,-3754,562,1249,127,3670,43,45,863
420259,10131604,10687760,10134022,10691078,1203,2766,-232,-3380,703,814,-52,5540,45,48,863
421260,10131788,10687968,10134219,10691275,1309,2637,-233,-3029,737,2353,-948,5376,45,48,863
422261,10131996,10688164,10134416,10691472,1155,2713,-236,-2911,731,1892,60,3822,51,38,861
423262,10132180,10688344,10134613,10691669,1311,2821,-266,-2974,772,1963,355,4170,51,38,861
424263,10132348,10688516,10134810,10691866,1424,2883,-248,-2994,835,2175,-282,4997,26,27,860
425271,10132552,10688704,10135040,10692096,1211,2802,-177,-3079,909,1905,-733,4244,26,27,860
426265,10132716,10688892,10135237,10692293,1476,2806,-77,-3064,959,2086,-191,5669,45,43,860
427266,10132920,10689064,10135434,10692490,1223,2918,4,-2810,951,2658,-1169,5726,45,43,860
428267,10133084,10689216,10135631,10692687,1489,3064,40,-2496,932,2474,-205,5749,35,39,860
429268,10133264,10689348,10135828,10692884,1396,3217,32,-2189,898,2823,-934,5487,35,39,860
430269,10133432,10689520,10136025,10693081,1485,2979,54,-1861,828,3154,-416,6159,25,36,859
431270,10133608,10689688,10136222,10693278,1444,3018,43,-1573,827,2501,-784,5191,25,36,859
432271,10133740,10689856,10136419,10693475,1749,3031,43,-1332,899,2157,-374,5728,38,36,856
433272,10133896,10690004,10136616,10693672,1617,3178,54,-1056,943,2706,-1214,5852,38,36,856
434273,10134072,10690132,10136813,10693869,1502,3335,91,-767,959,2501,-755,6307,40,24,857
435274,10134216,10690284,10137010,10694066,1725,3205,103,-661,1017,1659,-1106,5375,40,24,857
436275,10134364,10690420,10137207,10694263,1723,3332,103,-607,1057,1786,-1353,5630,32,34,855
437276,10134512,10690564,10137404,10694460,1744,3307,152,-576,1077,1518,-1125,6066,32,34,855
438277,10134672,10690692,10137601,10694657,1687,3438,198,-610,1076,1311,-2039,5627,24,29,855
439278,10134848,10690824,10137798,10694854,1596,3441,258,-589,1063,1155,-1270,6171,24,29,855
440279,10135008,10690964,10137995,10695051,1713,3418,274,-632,1039,1019,-1776,5351,40,23,854
441280,10135184,10691084,10138192,10695248,1622,3577,328,-601,1061,222,-807,6547,40,23,854
442281,10135340,10691208,10138389,10695445,1766,3585,366,-690,1122,211,-1731,5367,31,34,853
443281,10135500,10691344,10138586,10695642,1759,3537,373,-678,1075,1254,-440,5803,31,34,853
444282,10135696,10691464,10138783,10695839,1534,3672,365,-689,1061,179,-1094,5541,46,31,850
445284,10135884,10691580,10138980,10696036,1589,3734,304,-743,1094,-333,-907,4960,46,31,850
446285,10136056,10691692,10139177,10696233,1700,3797,231,-846,1095,54,-645,4912,46,14,851
447299,10136260,10691800,10139374,10696430,1498,3800,243,-828,1103,-322,-1230,6207,46,14,851
448299,10136424,10691920,10139571,10696627,1762,3800,301,-886,1129,-335,-1524,5486,31,15,851
449301,10136604,10692044,10139768,10696824,1671,3800,343,-1167,1122,5,-343,4792,31,15,851
450301,10136812,10692156,10139965,10697021,1492,3800,366,-1448,1149,-504,-753,4892,46,15,851
451303,10137004,10692276,10140162,10697218,1594,3800,376,-1611,1132,165,-673,5456,46,15,851
452303,10137188,10692380,10140359,10697415,1651,3800,375,-1642,1145,-295,-691,5228,44,30,850
453305,10137420,10692488,10140556,10697612,1336,3800,281,-1722,1180,-535,-619,4444,44,30,850
454305,10137620,10692632,10140753,10697809,1535,3800,208,-1667,1164,222,-793,5371,40,16,849
455307,10137816,10692744,10140950,10698006,1562,3800,157,-1537,1223,-724,-889,5612,40,16,849
456308,10138004,10692884,10141147,10698203,1616,3800,88,-1593,1265,-211,-601,4204,31,18,850
457309,10138212,10693020,10141344,10698400,1487,3800,52,-1704,1293,-110,-607,5043,31,18,850
458310,10138408,10693172,10141541,10698597,1562,3800,55,-1826,1316,-242,-354,4755,32,17,850
459310,10138600,10693324,10141738,10698794,1591,3800,46,-1963,1366,-556,-294,4334,32,17,850
460299,10138812,10693512,10141935,10698991,1460,3747,57,-2114,1419,-615,-156,4535,42,41,851
461300,10138980,10693728,10142132,10699188,1748,3565,95,-2205,1446,-664,-88,4694,42,41,851
462301,10139180,10693944,10142329,10699385,1547,3558,133,-2336,1449,-800,-167,4155,34,49,851
463302,10139368,10694188,10142526,10699582,1626,3364,163,-2389,1479,-1103,487,4471,34,49,851
464303,10139548,10694408,10142723,10699779,1685,3505,86,-2420,1519,-1057,739,3391,39,47,852
465304,10139716,10694648,10142920,10699976,1774,3362,-37,-2329,1597,-1315,871,4078,39,47,852
466305,10139896,10694872,10143117,10700173,1706,3451,-135,-2196,1584,236,481,3844,48,38,853
467306,10140060,10695124,10143314,10700370,1821,3253,-155,-2067,1527,333,-1050,4687,48,38,853
468307,10140212,10695360,10143511,10700567,1917,3337,-56,-1917,1670,-1632,-1478,5204,33,38,854
469308,10140384,10695632,10143708,10700764,1803,3080,-56,-1890,1954,-2023,311,3349,33,38,854
470309,10140520,10695852,10143905,10700961,2056,3396,-213,-2249,1831,2769,1670,566,44,53,854
471310,10140668,10696108,10144102,10701158,2003,3146,-241,-2279,1330,5347,-197,5616,44,53,854
472311,10140800,10696344,10144299,10701355,2132,3255,7,-1816,1211,501,-1013,7220,38,55,856
473312,10140972,10696592,10144496,10701552,1894,3157,61,-1854,1399,-331,259,1025,38,55,856
474313,10141140,10696812,10144693,10701749,1932,3323,4,-2075,1582,105,1291,2724,25,41,855
475314,10141288,10697036,10144890,10701946,2079,3287,-4,-1980,1650,870,827,4580,25,41,855
476315,10141452,10697260,10145087,10702143,1995,3276,-3,-1728,1707,765,-161,3423,45,34,853
477316,10141608,10697476,10145284,10702340,2063,3319,17,-1655,1785,648,-26,2824,45,34,853
478317,10141752,10697628,10145481,10702537,2162,3740,79,-1667,1897,-184,-46,3413,25,51,851
479318,10141920,10697896,10145678,10702734,2026,2985,168,-1696,2020,-204,-508,3224,25,51,851
480319,10142096,10698184,10145875,10702931,1986,2821,202,-1630,2018,841,-594,3278,25,41,853
481320,10142228,10698432,10146072,10703128,2290,3049,250,-1409,1906,851,1358,4364,25,41,853
482321,10142404,10698668,10146269,10703325,2025,3108,225,-1279,1904,211,650,2512,24,41,856
483322,10142544,10698944,10146466,10703522,2276,2824,133,-1312,1945,916,170,2267,24,41,856
484323,10142664,10699268,10146663,10703719,2436,2470,101,-1308,2030,125,-366,3568,36,47,854
485324,10142812,10699568,10146860,10703916,2282,2574,148,-1151,2168,-805,-73,3958,36,47,854
486325,10142940,10699856,10147057,10704113,2439,2610,139,-1092,2222,246,88,2547,32,52,855
487326,10143068,10700168,10147254,10704310,2470,2411,71,-1074,2174,1188,-263,2772,32,52,855
488327,10143204,10700516,10147451,10704507,2448,2120,75,-873,2149,1099,-541,4375,18,69,856
489328,10143360,10700840,10147648,10704704,2341,2216,153,-704,2135,1192,-317,3679,18,69,856
490329,10143492,10701124,10147845,10704901,2520,2427,261,-642,2149,132,1296,3444,35,63,856
491330,10143648,10701404,10148042,10705098,2389,2417,277,-855,2286,-653,1136,2048,35,63,856
492331,10143784,10701672,10148239,10705295,2542,2462,214,-1037,2381,787,410,2248,27,48,859
493331,10143932,10702036,10148436,10705492,2490,1788,221,-1051,2400,979,86,3418,27,48,859
494333,10144068,10702392,10148633,10705689,2593,1769,287,-1025,2426,102,-223,3026,45,73,857
495334,10144216,10702704,10148830,10705886,2539,1995,346,-1033,2490,-69,-156,2941,45,73,857
496335,10144360,10702964,10149027,10706083,2588,2292,334,-1078,2553,46,561,2634,38,56,860
497336,10144520,10703320,10149224,10706280,2506,1623,256,-1212,2587,421,206,1779,38,56,860
498337,10144700,10703676,10149421,10706477,2389,1553,237,-1237,2549,1195,134,3150,47,66,857
499338,10144880,10704012,10149618,10706674,2398,1618,308,-1033,2623,-1090,299,3702,47,66,857
500339,10145092,10704300,10149815,10706871,2192,1879,315,-1033,2784,-1378,957,1711,51,58,860
501340,10145304,10704616,10150012,10707068,2186,1652,227,-1065,2840,609,117,1989,51,58,860
502341,10145468,10704956,10150209,10707265,2502,1439,199,-955,2727,1522,-232,3393,53,68,862
503342,10145648,10705264,10150406,10707462,2410,1591,244,-690,2628,763,-446,3542,53,68,862
504343,10145832,10705584,10150603,10707659,2392,1462,302,-498,2633,684,3,2919,33,56,863
505344,10146060,10705892,10150800,10707856,2104,1490,305,-515,2595,1798,444,1887,33,56,863
506345,10146284,10706224,10150997,10708053,2118,1280,325,-443,2593,914,254,2924,44,50,862
507346,10146488,10706524,10151194,10708250,2241,1435,408,-297,2709,-364,117,2862,44,50,862
508354,10146720,10706808,10151424,10708480,2066,1512,494,-174,2830,39,191,2563,55,65,864
509347,10146916,10707076,10151621,10708677,2292,1581,535,-72,2813,1444,571,2514,55,65,864
510349,10147112,10707404,10151818,10708874,2294,1148,585,137,2693,1652,717,3153,51,65,862
511350,10147340,10707740,10152015,10709071,2081,1038,641,314,2547,1341,803,2634,51,65,862
512351,10147544,10708068,10152212,10709268,2229,1031,643,406,2475,775,510,1882,34,62,863
513352,10147772,10708384,10152409,10709465,2066,1054,582,546,2535,112,234,1872,34,62,863
514353,10147996,10708636,10152606,10709662,2080,1429,553,828,2589,515,532,2811,41,68,866
515354,10148212,10709016,10152803,10709859,2122,550,618,1214,2515,1127,1007,3564,41,68,866
516355,10148428,10709360,10153000,10710056,2115,710,672,1488,2378,1056,793,2357,36,56,867
517356,10148700,10709680,10153197,10710253,1733,806,610,1559,2279,649,-46,1248,36,56,867
518357,10148916,10709968,10153394,10710450,2075,966,493,1562,2250,583,-2289,1214,55,54,868
519358,10149136,10710268,10153591,10710647,2041,846,485,1823,2186,1148,-1758,3264,55,54,868
520359,10149392,10710636,10153788,10710844,1791,346,431,2322,2124,834,56,3050,58,55,868
521360,10149612,10711020,10153985,10711041,2007,164,246,2728,2165,43,302,2024,58,55,868
522361,10149832,10711284,10154182,10711238,1997,884,115,3001,2198,921,-66,2916,54,74,866
523362,10150064,10711536,10154379,10711435,1908,935,196,2928,2034,890,-424,2078,54,74,866
524363,10150348,10711892,10154576,10711632,1546,215,381,2559,1752,404,23,1258,63,60,870
525364,10150568,10712212,10154773,10711829,1936,386,462,2236,1539,349,-851,1531,63,60,870
526365,10150792,10712492,10154970,10712026,1901,600,351,2147,1372,928,-215,2373,38,63,868
527366,10151044,10712692,10155167,10712223,1701,1098,208,2151,1244,466,341,2344,38,63,868
528367,10151232,10712952,10155364,10712420,2106,696,140,2323,1166,101,-106,4952,35,48,870
529368,10151424,10713176,10155561,10712617,2085,909,20,2689,1201,119,-724,5200,35,48,870
530369,10151696,10713412,10155758,10712814,1553,817,-240,2704,1313,939,-735,3148,51,49,869
531370,10151912,10713612,10155955,10713011,1895,1039,-345,2536,1385,816,-1964,4885,51,49,869
532370,10152116,10713828,10156152,10713208,1967,931,-331,2222,1448,211,-2833,4686,33,44,865
533372,10152344,10713992,10156349,10713405,1805,1271,-380,2126,1382,782,-1672,5257,33,44,865
534372,10152544,10714172,10156546,10713602,1979,1178,-560,2122,1154,366,492,4078,33,44,867
535374,10152748,10714372,10156743,10713799,1952,1052,-801,1810,880,-1074,1185,3003,33,44,867
536375,10153004,10714564,10156940,10713996,1601,1104,-823,1017,604,-1331,-873,3634,43,28,867
537376,10153248,10714752,10157137,10714193,1657,1133,-615,53,371,-404,-1959,5444,43,28,867
538377,10153492,10714952,10157334,10714390,1637,1057,-384,-1090,209,-688,-2568,4163,51,32,867
539378,10153752,10715132,10157531,10714587,1510,1189,-291,-1996,60,82,-2063,5614,51,32,867
540379,10153976,10715300,10157728,10714784,1723,1276,-454,-2398,-145,515,-1371,5158,41,32,868
541380,10154188,10715424,10157925,10714981,1793,1583,-824,-2379,-325,-110,-1258,5546,41,32,868
542380,10154456,10715580,10158122,10715178,1413,1401,-1235,-2128,-439,-460,-1713,6191,43,40,868
543382,10154724,10715804,10158319,10715375,1381,964,-1638,-1998,-589,266,-2397,5468,43,40,868
544383,10154964,10716016,10158516,10715572,1538,1032,-1911,-1951,-718,718,-3431,6648,59,39,864
545384,10155192,10716196,10158713,10715769,1601,1240,-2087,-1978,-862,1148,-2645,5912,59,39,864
546385,10155436,10716404,10158910,10715966,1480,1060,-2295,-2205,-1049,1243,-1231,4476,39,29,870
547386,10155676,10716576,10159107,10716163,1487,1296,-2483,-2361,-1195,1061,-1886,4795,39,29,870
548387,10155908,10716764,10159304,10716360,1523,1200,-2571,-2325,-1320,1799,-1461,5829,38,36,868
549388,10156164,10716964,10159501,10716557,1347,1124,-2560,-2546,-1446,2373,-1471,3756,38,36,868
550388,10156380,10717168,10159698,10716754,1590,1096,-2430,-3143,-1539,2517,-1875,3750,51,45,869
551390,10156580,10717392,10159895,10716951,1689,959,-2207,-3821,-1597,2659,-1773,3815,51,45,869
552391,10156828,10717604,10160092,10717148,1367,1026,-1981,-4173,-1690,3323,-934,4163,38,44,870
553392,10157040,10717812,10160289,10717345,1586,1046,-1890,-4283,-1769,2921,-1263,3877,38,44,870
554392,10157252,10717996,10160486,10717542,1581,1202,-1927,-4118,-1833,3004,-1157,4093,42,40,868
555394,10157484,10718148,10160683,10717739,1440,1422,-1975,-3806,-1931,3625,-1671,4068,42,40,868
556395,10157668,10718292,10160880,10717936,1747,1495,-1963,-3522,-2053,3542,-873,4299,53,22,869
557396,10157868,10718424,10161077,10718133,1646,1599,-1908,-3378,-2119,2716,-562,3433,53,22,869
558396,10158036,10718552,10161274,10718330,1859,1654,-1914,-3339,-2202,3490,-113,2847,48,32,868
559398,10158228,10718744,10161471,10718527,1713,1256,-1864,-3095,-2285,4105,-3059,4804,48,32,868
560399,10158376,10718944,10161668,10718724,2009,1205,-1655,-2623,-2376,5035,-3821,5877,46,33,866
561400,10158516,10719116,10161865,10718921,2085,1391,-1389,-2222,-2589,6536,-2984,4727,46,33,866
562401,10158676,10719260,10162062,10719118,1977,1589,-1160,-2166,-2798,5370,-1848,3273,21,27,867
563402,10158860,10719396,10162259,10719315,1833,1666,-903,-2142,-2767,3134,-1742,4421,21,27,867
564403,10159044,10719564,10162456,10719512,1840,1479,-626,-1851,-2594,3151,364,5278,43,30,864
565404,10159228,10719708,10162653,10719709,1846,1652,-364,-1298,-2373,3478,-882,5116,43,30,864
566404,10159404,10719840,10162850,10719906,1906,1756,-168,-912,-2153,3906,-901,4452,39,24,864
567406,10159584,10719988,10163047,10720103,1889,1677,14,-685,-1931,4126,-3343,3910,39,24,864
568407,10159792,10720140,10163244,10720300,1709,1672,187,-375,-1911,6529,-4945,4126,26,34,864
569408,10159960,10720284,10163441,10720497,1973,1745,482,158,-2037,6585,221,6493,26,34,864
570409,10160136,10720404,10163638,10720694,1933,1929,655,532,-1815,2823,-2539,3990,31,16,864
571410,10160372,10720564,10163835,10720891,1541,1695,614,737,-1281,1643,-2201,3375,31,16,864
572411,10160596,10720704,10164032,10721088,1605,1845,499,940,-692,1118,-1873,3218,33,18,864
573412,10160792,10720808,10164229,10721285,1782,2111,526,1243,-227,613,-3466,4773,33,18,864
574413,10161028,10720916,10164426,10721482,1515,2125,752,1665,34,1746,-3130,6601,51,21,865
575415,10161232,10721028,10164623,10721679,1713,2138,954,1884,53,3443,-2619,4692,51,21,865
576415,10161408,10721148,10164820,10721876,1898,2121,1098,1921,67,2656,-1827,4826,32,28,862
577416,10161648,10721256,10165017,10722073,1479,2237,1200,1755,135,2146,-1378,3826,32,28,862
578417,10161916,10721384,10165214,10722270,1274,2142,1276,1507,178,2350,-1648,3900,36,21,862
579418,10162152,10721512,10165411,10722467,1458,2172,1363,1285,260,1677,-2796,4473,36,21,862
580419,10162400,10721628,10165608,10722664,1360,2283,1417,1187,349,1432,-2081,4387,38,25,863
581420,10162644,10721756,10165805,10722861,1366,2238,1337,1120,346,1749,-778,3818,38,25,863
582421,10162884,10721920,10166002,10723058,1372,2028,1084,1106,172,2555,-134,3707,46,17,864
583422,10163140,10722040,10166199,10723255,1247,2337,876,1245,76,1489,-1193,5282,46,17,864
584423,10163388,10722188,10166396,10723452,1275,2184,807,1311,24,1625,-713,4494,52,26,864
585424,10163652,10722340,10166593,10723649,1146,2179,618,931,5,629,25,1326,52,26,864
586425,10163904,10722460,10166790,10723846,1198,2413,324,617,135,-1077,139,2285,50,35,862
587426,10164144,10722624,10166987,10724043,1254,2153,93,567,389,-1542,-579,3690,50,35,862
588427,10164384,10722776,10167184,10724240,1236,2248,28,457,518,66,-736,2828,46,22,863
589428,10164628,10722920,10167381,10724437,1190,2321,133,83,454,1097,-926,3623,46,22,863
590429,10164856,10723076,10167578,10724634,1278,2264,345,-209,248,1899,-594,4705,53,35,865
591439,10165088,10723220,10167808,10724864,1252,2378,462,-620,45,1782,478,3068,53,35,865
592431,10165332,10723404,10168005,10725061,1157,2134,471,-928,-86,1612,805,3218,33,24,864
593432,10165552,10723580,10168202,10725258,1297,2193,451,-1130,-126,1453,386,3692,33,24,864
594433,10165808,10723736,10168399,10725455,1047,2337,439,-1155,-82,1298,387,3841,43,41,864
595434,10166048,10723884,10168596,10725652,1128,2408,410,-1203,48,601,684,3322,43,41,864
596435,10166260,10724048,10168793,10725849,1298,2323,356,-1225,240,-57,619,3315,38,40,864
597436,10166512,10724228,10168990,10726046,1023,2231,275,-1359,391,29,1132,2447,44,44,863
598436,10166712,10724432,10169187,10726243,1348,2078,145,-1522,527,-8,432,2632,44,44,863
599438,10166904,10724648,10169384,10726440,1400,1995,8,-1500,569,1156,-817,3139,53,47,865
600439,10167140,10724844,10169581,10726637,1109,2121,-11,-1382,540,997,453,3887,53,47,865
601440,10167304,10725040,10169778,10726834,1574,2122,117,-1313,512,729,135,4153,38,35,864
602441,10167464,10725220,10169975,10727031,1616,2229,280,-1616,446,1734,136,2724,38,35,864
603442,10167656,10725444,10170172,10727228,1418,1943,411,-1784,359,2988,167,3875,33,48,864
604443,10167800,10725664,10170369,10727425,1742,1958,421,-1917,434,1407,-417,2813,33,48,864
605444,10167952,10725912,10170566,10727622,1712,1761,310,-2053,694,97,-31,1790,21,47,864
606445,10168128,10726156,10170763,10727819,1572,1766,258,-1769,965,167,909,4635,21,47,864
607446,10168276,10726368,10170960,10728016,1769,1960,197,-1315,1122,796,407,3671,21,35,864
608447,10168412,10726564,10171157,10728213,1872,2060,71,-1020,1201,1345,628,2876,21,35,864
609448,10168600,10726772,10171354,10728410,1551,1981,-1,-816,1259,2103,9,4420,41,49,863
610449,10168728,10727020,10171551,10728607,1957,1709,94,-588,1374,768,-288,5025,41,49,863
611450,10168872,10727240,10171748,10728804,1880,1874,205,-616,1421,-254,-757,3696,21,41,864
612451,10169040,10727476,10171945,10729001,1744,1758,314,-741,1235,494,436,4930,21,41,864
613452,10169188,10727700,10172142,10729198,1891,1821,398,-1014,1013,61,-161,3677,41,43,864
614453,10169344,10727908,10172339,10729395,1860,1916,432,-1133,927,-142,-382,4270,41,43,864
615454,10169488,10728160,10172536,10729592,1959,1617,465,-1101,975,90,-346,4708,24,52,864
616455,10169688,10728396,10172733,10729789,1608,1701,507,-966,1075,695,-1047,5192,24,52,864
617456,10169848,10728608,10172930,10729986,1875,1844,579,-831,1128,1704,-1519,4964,38,49,864
618457,10169988,10728832,10173127,10730183,2025,1757,619,-706,1215,1348,-823,4317,38,49,864
619458,10170164,10729016,10173324,10730380,1810,2014,559,-492,1394,823,-365,4460,35,35,862
620459,10170320,10729200,10173521,10730577,1953,2020,511,-57,1484,2055,-764,5669,35,35,862
621460,10170484,10729408,10173718,10730774,1919,1865,530,388,1511,1650,-552,5417,22,40,863
622460,10170676,10729584,10173915,10730971,1747,2074,571,546,1643,724,-445,3782,22,40,863
623462,10170844,10729764,10174112,10731168,1910,2057,630,511,1861,1097,-1311,3761,46,25,863
624463,10171012,10729932,10174309,10731365,1923,2145,746,580,2089,1266,-397,4530,46,25,863
625464,10171216,10730124,10174506,10731562,1696,1997,822,671,2366,666,-711,3630,33,24,862
626465,10171408,10730296,10174703,10731759,1773,2133,829,776,2576,711,57,4084,33,24,862
627466,10171580,10730436,10174900,10731956,1910,2359,798,1086,2672,980,436,5113,36,23,863
628467,10171764,10730584,10175097,10732153,1841,2331,708,1390,2695,608,-132,4000,36,23,863
629468,10171960,10730744,10175294,10732350,1768,2272,638,1546,2737,120,628,4006,48,26,859
630469,10172128,10730920,10175491,10732547,1956,2182,640,1583,2843,-227,-147,3955,48,26,859
631470,10172284,10731128,10175688,10732744,2049,1978,685,1617,2941,100,-27,4596,43,44,859
632471,10172492,10731320,10175885,10732941,1721,2080,740,1658,2986,197,-165,3841,43,44,859
633472,10172672,10731520,10176082,10733138,1904,2029,758,1549,2982,-150,741,3574,40,35,861
634473,10172868,10731700,10176279,10733335,1804,2162,762,1453,3000,-766,254,4100,40,35,861
635474,10173076,10731884,10176476,10733532,1726,2143,781,1487,3011,-692,8,4475,42,36,862
636475,10173252,10732044,10176673,10733729,1936,2309,727,1427,2920,-363,706,3914,42,36,862
637476,10173400,10732236,10176870,10733926,2132,2112,617,1214,2777,-1067,172,3520,23,38,862
638477,10173568,10732456,10177067,10734123,2021,1927,511,1100,2551,-846,728,4973,23,38,862
639478,10173716,10732668,10177264,10734320,2169,1970,412,1117,2307,-1470,557,4445,26,40,860
640479,10173868,10732904,10177461,10734517,2163,1804,303,1179,2026,-1190,1072,4976,26,40,860
641480,10174012,10733152,10177658,10734714,2238,1707,194,1271,1844,-790,1242,4765,33,44,860
642481,10174132,10733404,10177855,10734911,2423,1658,99,1160,1821,-1556,296,4815,33,44,860
643482,10174296,10733568,10178052,10735108,2162,2223,53,807,1911,-1856,-733,4607,46,46,862
644483,10174496,10733680,10178249,10735305,1937,2586,56,346,1864,-1097,662,4763,46,46,862
645484,10174688,10733784,10178446,10735502,1990,2676,8,13,1678,-1195,913,5342,37,17,859
646485,10174848,10733884,10178643,10735699,2206,2745,-122,-93,1467,-701,1639,5855,37,17,859
647486,10175008,10734008,10178840,10735896,2223,2627,-340,22,1388,-862,899,5709,27,20,856
648487,10175184,10734168,10179037,10736093,2134,2418,-541,-61,1420,-1046,202,5007,27,20,856
649488,10175336,10734360,10179234,10736290,2304,2222,-623,-243,1410,-355,-88,6095,25,34,854
650489,10175460,10734596,10179431,10736487,2512,1930,-606,-443,1328,520,-406,5680,25,34,854
651490,10175608,10734884,10179628,10736684,2384,1565,-457,-481,1295,668,-398,6409,26,60,858
652491,10175760,10735080,10179825,10736881,2380,2141,-245,-452,1377,802,-618,5557,26,60,858
653492,10175896,10735388,10180022,10737078,2508,1392,-94,-492,1471,784,642,3965,37,60,860
654493,10176044,10735764,10180219,10737275,2454,889,-58,-483,1570,726,-942,3651,37,60,860
655494,10176148,10736068,10180416,10737472,2771,1292,-65,-332,1594,1104,-2196,3559,36,60,861
656495,10176272,10736356,10180613,10737669,2679,1353,-54,83,1646,245,-1510,4375,36,60,861
657496,10176408,10736660,10180810,10737866,2632,1205,-50,592,1725,146,-1154,3912,24,60,860
658497,10176528,10736968,10181007,10738063,2767,1132,-187,935,1747,-5,-1135,2198,24,60,860
659498,10176684,10737240,10181204,10738260,2561,1325,-351,1253,1666,171,-1345,3737,22,53,862
660499,10176832,10737484,10181401,10738457,2632,1479,-389,1648,1434,359,-1047,4855,22,53,862
661500,10176988,10737764,10181598,10738654,2601,1218,-446,1810,1047,-294,-413,3376,46,56,862
662501,10177116,10738048,10181795,10738851,2808,1154,-512,1898,649,-858,590,4910,46,56,862
663502,10177272,10738344,10181992,10739048,2652,1036,-565,1958,259,-858,549,5210,26,46,861
664503,10177428,10738636,10182189,10739245,2671,1019,-584,1872,-139,-432,702,4839,26,46,861
665503,10177592,10738984,10182386,10739442,2636,603,-557,1658,-350,-102,267,5143,38,54,862
666505,10177752,10739264,10182583,10739639,2678,992,-484,1488,-339,-223,514,4826,38,54,862
667506,10177948,10739576,10182780,10739836,2455,742,-400,1391,-263,316,1053,3907,29,58,864
668507,10178132,10739872,10182977,10740033,2537,798,-423,1330,-262,1184,943,3072,29,58,864
669507,10178320,10740108,10183174,10740230,2517,1156,-518,1360,-293,1715,-19,2831,31,60,864
670509,10178528,10740340,10183371,10740427,2387,1166,-545,1566,-312,1646,-1308,3861,31,60,864
671510,10178716,10740624,10183568,10740624,2517,803,-466,1786,-377,1442,-2432,3889,52,52,863
672511,10178896,10740868,10183765,10740821,2575,1032,-342,1923,-410,125,-1937,3986,52,52,863
673512,10179124,10741108,10183962,10741018,2263,1038,-212,1954,-327,-1033,-2333,4091,34,43,863
674520,10179304,10741336,10184192,10741248,2586,1114,-83,1845,-320,-444,-797,4612,34,43,863
675514,10179484,10741536,10184389,10741445,2594,1288,-33,1575,-466,-17,-471,3428,35,50,864
676515,10179688,10741748,10184586,10741642,2442,1206,-80,1138,-652,-1154,-721,3496,35,50,864
677516,10179876,10741984,10184783,10741839,2547,1039,-131,792,-919,-1578,-123,4632,31,50,862
678517,10180036,10742200,10184980,10742036,2739,1155,-283,561,-1304,-1024,-109,4704,31,50,862
679518,10180220,10742432,10185177,10742233,2596,1040,-561,415,-1643,-990,-1122,4477,29,39,864
680519,10180412,10742648,10185374,10742430,2549,1132,-782,423,-1808,-1086,-1853,5835,29,39,864
681520,10180596,10742812,10185571,10742627,2606,1471,-846,401,-1830,-884,-1698,5389,49,30,863
682521,10180800,10742996,10185768,10742824,2479,1351,-850,206,-1832,-462,-1520,4222,49,30,863
683522,10181004,10743168,10185965,10743021,2477,1437,-845,119,-1830,-174,-2164,5579,48,24,861
684523,10181196,10743308,10186162,10743218,2555,1662,-861,320,-1777,-53,-2334,5292,48,24,861
685524,10181360,10743468,10186359,10743415,2745,1553,-958,669,-1762,-36,-1398,4235,45,22,860
686525,10181544,10743608,10186556,10743612,2626,1703,-1072,976,-1783,-256,-1115,4580,45,22,860
687526,10181720,10743736,10186753,10743809,2686,1809,-1061,1063,-1786,-87,-2135,4305,45,21,859
688527,10181872,10743872,10186950,10744006,2857,1785,-925,717,-1814,282,-1564,3340,45,21,859
689528,10182048,10743988,10187147,10744203,2717,1946,-708,57,-1761,-244,-623,3450,38,19,858
690529,10182204,10744092,10187344,10744400,2861,2062,-407,-769,-1657,-131,-1435,3922,38,19,858
691530,10182364,10744192,10187541,10744597,2854,2130,-106,-1627,-1610,219,-1445,3808,27,24,857
692531,10182548,10744280,10187738,10744794,2710,2253,53,-2136,-1603,260,-1665,4410,27,24,857
693532,10182736,10744384,10187935,10744991,2690,2194,10,-2149,-1599,460,-1094,4862,44,15,853
694533,10182928,10744484,10188132,10745188,2668,2262,-182,-1716,-1681,1430,-622,5012,44,15,853
695534,10183132,10744612,10188329,10745385,2591,2117,-384,-1164,-1806,1491,-1337,4946,36,31,854
696535,10183308,10744748,10188526,10745582,2777,2094,-492,-590,-1873,1525,-1260,5481,36,31,854
697536,10183496,10744868,10188723,10745779,2707,2228,-555,-333,-1858,1108,-436,3681,26,31,855
698537,10183676,10744984,10188920,10745976,2765,2288,-618,-479,-1768,601,-746,2640,26,31,855
699538,10183884,10745092,10189117,10746173,2586,2379,-573,-755,-1623,375,-1456,3560,31,31,856
700539,10184084,10745220,10189314,10746370,2636,2284,-411,-1031,-1554,904,-1281,3324,31,31,856
701539,10184292,10745320,10189511,10746567,2582,2501,-228,-1277,-1565,1092,-909,2905,46,26,855
702541,10184504,10745428,10189708,10746764,2551,2491,-52,-1396,-1589,931,-525,3550,46,26,855
703542,10184716,10745508,10189905,10746961,2546,2718,36,-1410,-1584,806,-519,2745,39,30,855
704543,10184932,10745636,10190102,10747158,2513,2448,43,-1367,-1516,620,-342,2147,39,30,855
705544,10185172,10745732,10190299,10747355,2346,2693,13,-1237,-1388,742,-1292,2713,36,17,854
706545,10185396,10745840,10190496,10747552,2435,2657,3,-977,-1299,1508,-1070,3024,36,17,854
707546,10185656,10745960,10190693,10747749,2183,2617,52,-712,-1273,1674,-879,3211,55,15,854
708547,10185908,10746084,10190890,10747946,2210,2624,150,-515,-1249,880,-752,2826,55,15,854
709548,10186164,10746200,10191087,10748143,2160,2709,264,-499,-1186,624,-785,2488,39,29,856
710548,10186396,10746332,10191284,10748340,2296,2639,377,-540,-1132,1049,-1153,2868,39,29,856
711550,10186664,10746444,10191481,10748537,2040,2801,483,-620,-1086,959,-367,2718,43,22,856
712551,10186940,10746540,10191678,10748734,1957,2947,531,-834,-1090,1308,171,2095,43,22,856
713552,10187216,10746656,10191875,10748931,1923,2857,570,-942,-1089,1059,-294,3005,45,32,856
714553,10187472,10746780,10192072,10749128,2023,2839,592,-973,-1038,639,-865,3206,45,32,856
715554,10187748,10746884,10192269,10749325,1864,3006,586,-968,-926,332,-298,2681,44,25,856
716555,10188032,10746988,10192466,10749522,1776,3047,495,-1135,-830,548,-259,2187,44,25,856
717556,10188304,10747096,10192663,10749719,1819,3062,430,-1154,-787,757,-881,3541,63,31,854
718557,10188608,10747240,10192860,10749916,1573,2860,383,-1087,-790,822,-965,3793,63,31,854
719558,10188848,10747364,10193057,10750113,1955,3019,335,-1129,-840,825,-323,3002,68,28,854
720559,10189108,10747500,10193254,10750310,1803,2970,289,-1286,-901,620,-346,3086,68,28,854
721560,10189416,10747656,10193451,10750507,1455,2864,232,-1370,-919,815,-545,3825,67,27,856
722560,10189676,10747796,10193648,10750704,1728,2989,225,-1413,-905,813,-204,3383,67,27,856
723562,10189948,10747920,10193845,10750901,1621,3123,153,-1640,-912,634,724,2584,58,36,858
724563,10190256,10748060,10194042,10751098,1348,3049,108,-1843,-844,-201,281,2626,58,36,858
725564,10190500,10748192,10194239,10751295,1728,3127,92,-2045,-781,320,-457,3047,50,36,856
726564,10190776,10748352,10194436,10751492,1494,2969,93,-2190,-758,595,-535,2762,50,36,856
727566,10191072,10748520,10194633,10751689,1326,2932,112,-2353,-759,528,-808,2667,67,41,855
728567,10191324,10748680,10194830,10751886,1578,2999,150,-2435,-813,795,-211,3281,67,41,855
729568,10191584,10748804,10195027,10752083,1501,3257,156,-2544,-831,525,-413,2810,55,41,857
730569,10191876,10748948,10195224,10752280,1260,3156,179,-2578,-803,658,-593,3145,55,41,857
731570,10192112,10749112,10195421,10752477,1593,3046,151,-2609,-758,998,-184,3382,60,35,855
732571,10192368,10749284,10195618,10752674,1443,3007,99,-2726,-669,589,136,2267,60,35,855
733572,10192592,10749440,10195815,10752871,1632,3126,24,-2802,-599,1026,-45,3585,57,39,857
734572,10192836,10749588,10196012,10753068,1486,3199,10,-2744,-526,719,-492,3626,57,39,857
735574,10193088,10749732,10196209,10753265,1413,3247,-32,-2887,-468,1056,-339,2738,63,39,856
736575,10193364,10749900,10196406,10753462,1229,3111,-36,-3014,-388,588,-165,3474,63,39,856
737576,10193644,10750068,10196603,10753659,1168,3125,-15,-3215,-367,889,-378,3121,55,35,855
738576,10193872,10750252,10196800,10753856,1480,3030,40,-3330,-394,935,532,3685,55,35,855
739578,10194128,10750408,10196997,10754053,1279,3224,67,-3561,-320,39,-347,3005,39,28,857
740579,10194372,10750556,10197194,10754250,1335,3297,73,-3663,-231,752,38,3843,39,28,857
741580,10194656,10750688,10197391,10754447,1046,3425,40,-3680,-210,1217,111,3433,51,36,855
742581,10194920,10750836,10197588,10754644,1143,3348,-42,-3719,-150,458,14,3219,51,36,855
743582,10195200,10751020,10197785,10754841,1006,3130,-82,-3670,-95,1049,-231,4147,51,35,856
744583,10195436,10751212,10197982,10755038,1265,3083,-125,-3632,-74,1277,-170,3629,51,35,856
745584,10195696,10751388,10198179,10755235,1088,3192,-154,-3653,36,384,-576,3425,61,45,858
746585,10195964,10751560,10198376,10755432,1007,3229,-95,-3522,174,850,135,5666,61,45,858
747586,10196228,10751732,10198573,10755629,1003,3241,-73,-3369,147,2359,-476,3815,57,30,857
748587,10196460,10751920,10198770,10755826,1189,3146,-158,-3332,197,723,245,3779,57,30,857
749588,10196712,10752124,10198967,10756023,1039,3043,-213,-3128,418,-108,63,4747,56,38,857
750589,10196976,10752296,10199164,10756220,936,3255,-230,-3023,496,1653,59,4285,56,38,857
751590,10197184,10752492,10199361,10756417,1281,3106,-202,-2973,476,2000,302,4413,34,47,858
752591,10197404,10752716,10199558,10756614,1196,2920,-206,-3004,461,2183,368,4478,34,47,858
753592,10197604,10752904,10199755,10756811,1321,3149,-205,-2908,473,2074,140,4979,44,40,857
754592,10197820,10753128,10199952,10757008,1212,2914,-198,-2868,554,1061,-227,4417,44,40,857
755593,10198016,10753292,10200149,10757205,1339,3304,-192,-2937,690,739,-176,4104,34,32,858
756595,10198232,10753508,10200346,10757402,1206,2972,-178,-2856,751,2115,-866,5362,34,32,858
757602,10198428,10753696,10200576,10757632,1345,3165,-150,-2680,752,2276,-996,5013,34,45,857
758596,10198600,10753868,10200773,10757829,1507,3277,-132,-2495,763,2073,-366,5069,34,45,857
759598,10198828,10754036,10200970,10758026,1144,3316,-105,-2387,825,1929,-450,5033,34,26,857
760599,10199012,10754232,10201167,10758223,1426,3142,-86,-2263,934,1725,-510,5182,34,26,857
761600,10199208,10754400,10201364,10758420,1351,3330,-95,-2146,999,2047,13,4891,43,36,855
762601,10199404,10754568,10201561,10758617,1351,3344,-95,-1979,1127,977,-846,5177,43,36,855
763602,10199560,10754724,10201758,10758814,1620,3438,3,-1729,1251,741,-696,5270,46,40,854
764603,10199740,10754864,10201955,10759011,1478,3564,18,-1718,1266,825,-494,4835,46,40,854
765603,10199872,10755044,10202152,10759208,1807,3321,14,-1721,1275,625,-503,5490,43,25,853
766604,10200048,10755216,10202349,10759405,1542,3383,49,-1587,1266,612,-719,5992,43,25,853
767606,10200216,10755384,10202546,10759602,1605,3422,43,-1552,1262,420,-790,5146,44,30,853
768607,10200388,10755564,10202743,10759799,1591,3356,47,-1402,1192,1090,-871,6242,44,30,853
769608,10200576,10755700,10202940,10759996,1495,3658,74,-1330,1180,180,-800,5714,23,31,853
770608,10200720,10755840,10203137,10760193,1795,3658,75,-1420,1224,168,-1197,5132,23,31,853
771609,10200868,10756020,10203334,10760390,1791,3417,112,-1471,1233,554,-819,6116,44,41,851
772611,10201084,10756176,10203531,10760587,1359,3586,136,-1546,1222,391,-1293,5281,44,41,851
773612,10201260,10756320,10203728,10760784,1618,3685,107,-1635,1217,284,-758,4998,47,39,850
774613,10201432,10756496,10203925,10760981,1655,3495,98,-1546,1221,244,-1235,5739,47,39,850
775614,10201624,10756652,10204122,10761178,1532,3639,99,-1328,1313,-889,-1071,6059,48,37,851
776615,10201796,10756832,10204319,10761375,1669,3498,114,-1260,1340,37,-960,4839,48,37,851
777616,10201976,10757000,10204516,10761572,1627,3586,185,-1271,1284,618,-236,6259,46,24,851
778617,10202172,10757156,10204713,10761769,1528,3680,249,-1471,1281,-161,-950,4402,46,24,851
779630,10202336,10757284,10204910,10761966,1743,3800,284,-1671,1293,138,-504,4975,47,27,851
780632,10202528,10757420,10205107,10762163,1571,3800,305,-1678,1312,-315,-1114,5530,47,27,851
781632,10202720,10757568,10205304,10762360,1573,3800,289,-1594,1314,-675,-395,4743,28,21,849
782621,10202920,10757732,10205501,10762557,1523,3727,260,-1477,1371,-1123,-596,5462,28,21,849
783635,10203088,10757880,10205698,10762754,1735,3800,250,-1360,1343,-109,-97,5226,31,32,848
784635,10203288,10758012,10205895,10762951,1535,3800,242,-1448,1334,-538,-277,4444,31,32,848
785636,10203484,10758152,10206092,10763148,1561,3800,218,-1539,1302,-87,-836,4730,50,16,847
786637,10203688,10758300,10206289,10763345,1509,3800,229,-1473,1327,-877,-404,5503,50,16,847
787638,10203896,10758448,10206486,10763542,1479,3800,223,-1376,1368,-852,-555,4798,33,34,849
788639,10204084,10758612,10206683,10763739,1609,3800,198,-1368,1385,-634,-437,4434,33,34,849
789640,10204276,10758780,10206880,10763936,1586,3800,182,-1459,1420,-730,-172,4501,30,40,847
790641,10204432,10758936,10207077,10764133,1830,3800,150,-1510,1476,-702,-174,4357,30,40,847
791630,10204624,10759144,10207274,10764330,1607,3619,148,-1555,1533,-717,51,4434,29,39,850
792631,10204812,10759376,10207471,10764527,1637,3454,186,-1591,1580,-879,-35,4470,29,39,850
793632,10205004,10759632,10207668,10764724,1614,3279,257,-1581,1643,-1364,23,4891,31,54,849
794633,10205180,10759840,10207865,10764921,1724,3575,243,-1751,1731,-1268,-127,3286,31,54,849
795634,10205348,10760060,10208062,10765118,1787,3491,192,-1977,1717,55,77,3506,50,42,853
796635,10205496,10760268,10208259,10765315,1935,3562,200,-1963,1567,1024,-153,5338,50,42,853
797636,10205688,10760492,10208456,10765512,1662,3452,233,-1837,1485,-17,-423,4588,39,52,851
798637,10205852,10760740,10208653,10765709,1852,3280,144,-1913,1622,-1536,-137,3407,39,52,851
799638,10206012,10760996,10208850,10765906,1894,3205,80,-1812,1976,-2789,367,4832,46,36,852
800638,10206140,10761216,10209047,10766103,2125,3421,-2,-1672,2285,-1492,1309,3841,46,36,852
801640,10206296,10761408,10209244,10766300,1968,3599,-133,-1796,1834,6254,2454,2384,32,39,853
802640,10206448,10761620,10209441,10766497,2014,3469,-49,-1612,1384,3447,-1365,7184,32,39,853
803642,10206608,10761844,10209638,10766694,1980,3383,96,-1533,1538,-1699,-1198,3973,31,36,850
804642,10206772,10762080,10209835,10766891,1971,3292,146,-1861,1861,-1592,564,1787,31,36,850
805644,10206948,10762288,10210032,10767088,1906,3463,199,-2063,1989,35,328,4532,25,46,851
806644,10207092,10762484,10210229,10767285,2129,3539,154,-2010,1925,1090,245,3267,25,46,851
807646,10207240,10762688,10210426,10767482,2127,3487,13,-1933,1910,365,965,2671,34,35,851
808647,10207392,10762892,10210623,10767679,2121,3484,-86,-1874,1974,-189,444,3697,34,35,851
809648,10207552,10763096,10210820,10767876,2089,3482,-59,-1802,2041,-635,-460,3960,46,38,849
810648,10207720,10763340,10211017,10768073,2052,3212,-3,-1736,2065,-262,-396,3840,46,38,849
811650,10207860,10763620,10211214,10768270,2252,2952,-1,-1641,2068,-63,-159,3431,44,57,851
812650,10208000,10763872,10211411,10768467,2278,3104,-13,-1512,2060,120,1094,4093,44,57,851
813652,10208128,10764120,10211608,10768664,2385,3107,-53,-1448,2088,323,779,3377,26,57,853
814653,10208260,10764376,10211805,10768861,2388,3032,-123,-1602,2022,1641,392,2351,26,57,853
815654,10208388,10764712,10212002,10769058,2445,2472,-147,-1744,1999,383,199,3513,43,62,851
816655,10208532,10765032,10212199,10769255,2369,2519,-95,-1775,2093,-632,226,3691,43,62,851
817656,10208660,10765340,10212396,10769452,2499,2546,-25,-1797,2209,-201,37,3440,23,49,853
818656,10208808,10765624,10212593,10769649,2397,2658,19,-1784,2265,599,-528,3460,23,49,853
819658,10208936,10765984,10212790,10769846,2553,2113,72,-1729,2246,937,-428,3732,31,59,855
820658,10209084,10766336,10212987,10770043,2450,2096,81,-1868,2174,1552,104,2322,31,59,855
821660,10209228,10766696,10213184,10770240,2499,1974,74,-2091,2246,-393,-52,2568,30,55,857
822660,10209372,10767024,10213381,10770437,2523,2117,61,-2329,2422,-263,281,2153,30,55,857
823662,10209524,10767300,10213578,10770634,2494,2409,55,-2456,2539,647,472,2794,44,62,858
824663,10209668,10767672,10213775,10770831,2567,1732,71,-2414,2549,876,21,3336,44,62,858
825664,10209808,10768048,10213972,10771028,2618,1629,78,-2301,2601,-121,-373,3206,24,79,857
826665,10209972,10768352,10214169,10771225,2484,2032,43,-2139,2719,-42,156,3361,24,79,857
827666,10210120,10768712,10214366,10771422,2606,1611,-59,-2059,2693,1693,774,2512,35,66,859
828666,10210300,10769072,10214563,10771619,2415,1541,-146,-1809,2592,1291,665,3768,35,66,859
829668,10210504,10769420,10214760,10771816,2262,1549,-160,-1501,2601,-142,484,3789,39,70,858
830669,10210688,10769720,10214957,10772013,2394,1804,-185,-1276,2697,114,144,2554,39,70,858
831670,10210884,10770048,10215154,10772210,2320,1573,-228,-1263,2706,1368,188,1990,42,57,861
832670,10211076,10770436,10215351,10772407,2348,1114,-186,-1106,2634,1632,73,3669,42,57,861
833672,10211264,10770776,10215548,10772604,2378,1352,-76,-844,2624,789,20,3290,36,63,861
834672,10211468,10771060,10215745,10772801,2276,1664,-7,-819,2651,1041,564,1415,36,63,861
835674,10211676,10771376,10215942,10772998,2246,1411,19,-866,2638,1593,853,1530,49,65,862
836674,10211916,10771716,10216139,10773195,2028,1199,120,-679,2689,456,823,3269,49,65,862
837676,10212120,10772036,10216336,10773392,2251,1270,270,-311,2757,465,690,2932,56,68,862
838677,10212308,10772356,10216533,10773589,2356,1216,358,-181,2719,1335,570,1236,56,68,862
839678,10212532,10772632,10216730,10773786,2120,1457,392,-84,2629,1317,182,1773,50,49,863
840686,10212740,10772936,10216960,10774016,2230,1250,460,172,2546,1126,212,2871,50,49,863
841680,10212972,10773264,10217157,10774213,2066,1043,533,473,2465,917,176,2004,38,61,863
842681,10213204,10773600,10217354,10774410,2051,931,560,731,2430,60,88,1542,38,61,863
843682,10213408,10773956,10217551,10774607,2224,737,567,1039,2452,380,225,1996,56,65,864
844683,10213636,10774216,10217748,10774804,2062,1309,585,1415,2388,1567,408,2258,56,65,864
845684,10213892,10774580,10217945,10775001,1861,586,613,1691,2228,1650,402,1783,57,70,865
846685,10214116,10774940,10218142,10775198,2050,539,595,1828,2135,611,-533,941,57,70,865
847686,10214344,10775252,10218339,10775395,2012,789,597,2022,2135,642,-2434,1592,38,67,864
848687,10214592,10775528,10218536,10775592,1866,980,693,2503,2164,1353,-1104,3732,38,67,864
849688,10214844,10775876,10218733,10775789,1817,463,640,2960,2223,1044,-528,1753,60,67,867
850689,10215080,10776228,10218930,10775986,1900,370,483,3337,2304,368,-780,2209,60,67,867
851690,10215316,10776548,10219127,10776183,1884,516,395,3631,2299,1678,-740,3041,43,57,865
852691,10215572,10776836,10219324,10776380,1734,675,437,3648,2172,666,-148,1850,43,57,865
853692,10215828,10777116,10219521,10776577,1708,689,526,3403,2050,-230,-720,1181,64,68,868
854693,10216072,10777504,10219718,10776774,1764,-70,604,3389,1942,530,-902,3038,64,68,868
855694,10216328,10777856,10219915,10776971,1664,87,527,3672,1741,1901,694,3018,52,54,868
856695,10216580,10778152,10220112,10777168,1665,393,217,3956,1579,1882,36,1921,52,54,868
857696,10216768,10778280,10220309,10777365,2070,1473,-181,4570,1570,1992,11,4649,34,49,870
858697,10216996,10778552,10220506,10777562,1807,540,-587,5133,1739,999,-341,3620,34,49,870
859698,10217236,10778800,10220703,10777759,1713,667,-670,5069,1887,-17,-1122,3117,34,42,870
860699,10217456,10779092,10220900,10777956,1829,350,-473,4260,1919,540,-1956,2556,34,42,870
861700,10217676,10779292,10221097,10778153,1820,924,-158,3294,1978,128,-1786,3471,49,48,867
862701,10217888,10779476,10221294,10778350,1863,1030,101,2299,1972,525,-998,2804,49,48,867
863702,10218096,10779632,10221491,10778547,1884,1223,293,1784,2036,-1334,-1209,3921,32,30,868
864703,10218340,10779840,10221688,10778744,1640,892,277,1549,2063,-1420,466,2913,32,30,868
865704,10218616,10780084,10221885,10778941,1405,646,75,1538,1907,-433,610,2773,50,30,867
866705,10218848,10780268,10222082,10779138,1666,1027,-91,1574,1637,-724,-2079,4888,50,30,867
867706,10219104,10780476,10222279,10779335,1491,872,-102,1449,1423,-1493,-3908,5117,52,41,869
868707,10219396,10780616,10222476,10779532,1224,1321,-211,1203,1199,-823,-2120,4135,52,41,869
869708,10219608,10780792,10222673,10779729,1718,1105,-468,1192,804,278,538,5844,62,26,868
870709,10219832,10780916,10222870,10779926,1632,1462,-777,1061,549,-1804,-2282,5576,62,26,868
871710,10220156,10781084,10223067,10780123,952,1200,-959,504,411,-624,-4218,4844,45,26,868
872711,10220392,10781268,10223264,10780320,1485,1106,-1091,97,287,460,-2547,6221,45,26,868
873712,10220648,10781496,10223461,10780517,1335,816,-1200,-316,208,-920,68,4241,46,35,865
874713,10220880,10781672,10223658,10780714,1470,1151,-1269,-1181,91,-391,-505,4253,46,35,865
875714,10221132,10781884,10223855,10780911,1321,919,-1188,-2286,-147,1058,-1332,4966,38,29,869
876715,10221384,10782056,10224052,10781108,1298,1180,-1133,-3397,-387,1284,-2575,5553,38,29,869
877716,10221640,10782248,10224249,10781305,1247,1057,-1177,-4173,-611,1602,-2490,5445,59,39,869
878717,10221848,10782420,10224446,10781502,1543,1193,-1387,-4621,-837,1967,-1500,5566,59,39,869
879718,10222076,10782576,10224643,10781699,1405,1310,-1696,-4665,-1033,1646,-656,4999,41,28,869
880719,10222320,10782800,10224840,10781896,1285,873,-1975,-4377,-1209,1763,-493,5928,41,28,869
881720,10222544,10782996,10225037,10782093,1398,1049,-2155,-3920,-1390,1899,-1500,6273,56,41,868
882721,10222724,10783216,10225234,10782290,1682,889,-2321,-3672,-1514,2054,-1472,4629,56,41,868
883722,10222976,10783392,10225431,10782487,1207,1173,-2434,-3626,-1615,3067,-1541,4690,50,27,869
884723,10223156,10783552,10225628,10782684,1665,1289,-2406,-3750,-1733,3492,-1329,4545,50,27,869
885724,10223344,10783720,10225825,10782881,1620,1251,-2306,-4087,-1845,3296,-1341,3458,30,38,868
886725,10223540,10783856,10226022,10783078,1570,1478,-2213,-4355,-1948,3227,-733,3940,30,38,868
887726,10223764,10784000,10226219,10783275,1384,1451,-2132,-4318,-2016,2585,-432,4504,47,39,867
888727,10223972,10784180,10226416,10783472,1480,1233,-2042,-4088,-2100,2657,473,4884,47,39,867
889728,10224160,10784364,10226613,10783669,1609,1214,-1968,-4028,-2124,2296,-418,3706,31,41,866
890729,10224372,10784516,10226810,10783866,1453,1434,-2034,-4308,-2140,3652,-3527,1323,31,41,866
891730,10224536,10784664,10227007,10784063,1768,1479,-2161,-4548,-2245,4900,-1146,2901,38,35,868
892731,10224708,10784800,10227204,10784260,1729,1581,-2119,-4283,-2320,4084,-2611,5251,38,35,868
893731,10224876,10784948,10227401,10784457,1768,1528,-1906,-3893,-2558,5780,-4178,5095,34,21,867
894732,10225016,10785076,10227598,10784654,1968,1683,-1492,-3328,-2831,5695,-1822,6450,34,21,867
895734,10225196,10785204,10227795,10784851,1727,1713,-1110,-3032,-2892,3918,-1663,4195,21,17,864
896735,10225380,10785316,10227992,10785048,1707,1851,-781,-2911,-2738,3418,-489,4405,21,17,864
897736,10225528,10785480,10228189,10785245,1955,1540,-481,-2931,-2497,3488,-541,3940,29,24,863
898736,10225672,10785616,10228386,10785442,2003,1742,-116,-2884,-2335,4628,-70,4889,29,24,863
899738,10225860,10785768,10228583,10785639,1733,1662,179,-2785,-2225,5463,-3917,3489,40,25,864
900738,10226048,10785896,10228780,10785836,1737,1842,445,-2360,-2135,5965,-2523,5843,40,25,864
901740,10226240,10785996,10228977,10786033,1715,2060,681,-1825,-2010,5197,-950,5030,24,14,863
902740,10226416,10786144,10229174,10786230,1825,1781,864,-1436,-1765,3592,1504,4946,24,14,863
903742,10226644,10786248,10229371,10786427,1487,2097,830,-1039,-1253,1890,-4689,3788,36,22,864
904743,10226836,10786380,10229568,10786624,1714,1951,708,-311,-795,2592,-4204,5438,36,22,864
905744,10227016,10786480,10229765,10786821,1798,2193,711,757,-498,2535,-1442,7214,40,31,862
906745,10227252,10786584,10229962,10787018,1430,2209,658,1533,-355,2739,-2745,3958,40,31,862
907746,10227436,10786680,10230159,10787215,1762,2304,569,1850,-219,2726,-2069,3357,31,19,862
908747,10227644,10786796,10230356,10787412,1607,2214,608,1846,-89,3265,-2283,4033,31,19,862
909748,10227884,10786920,10230553,10787609,1389,2196,820,1864,50,3435,-2734,5432,35,19,863
910748,10228112,10787040,10230750,10787806,1451,2255,1072,1849,197,3271,-2790,4632,35,19,863
911750,10228332,10787160,10230947,10788003,1492,2290,1312,1996,391,2243,-2486,6033,53,12,862
912751,10228552,10787248,10231144,10788200,1482,2538,1495,2186,576,1975,-2287,6155,53,12,862
913752,10228792,10787356,10231341,10788397,1339,2452,1544,2234,696,2442,-1945,4497,46,17,862
914753,10229056,10787468,10231538,10788594,1159,2464,1495,2037,855,1874,-2222,3934,46,17,862
915754,10229316,10787576,10231735,10788791,1158,2528,1401,1788,1114,451,-2593,3365,50,11,860
916755,10229548,10787672,10231932,10788988,1317,2649,1252,1574,1449,-1035,-1362,2884,50,11,860
917756,10229792,10787784,10232129,10789185,1223,2586,1084,1438,1760,-1568,-1211,2662,47,16,861
918756,10230008,10787896,10232326,10789382,1389,2624,986,1435,1990,-1076,-1909,4471,47,16,861
919758,10230252,10788012,10232523,10789579,1194,2634,956,1386,2059,338,-2064,3605,43,25,860
920759,10230464,10788120,10232720,10789776,1388,2724,950,1292,1945,1422,-973,4154,43,25,860
921760,10230668,10788228,10232917,10789973,1435,2763,1080,1163,1715,1766,392,4826,40,33,860
922761,10230928,10788380,10233114,10790170,1058,2508,1275,670,1541,958,-957,3152,40,33,860
923771,10231116,10788508,10233344,10790400,1527,2704,1536,38,1476,724,-1221,4333,32,20,858
924763,10231340,10788640,10233541,10790597,1291,2708,1760,-522,1526,155,-748,3924,32,20,858
925764,10231616,10788760,10233738,10790794,931,2816,1809,-908,1590,122,214,3100,40,34,862
926765,10231852,10788944,10233935,10790991,1165,2423,1708,-991,1505,1036,2156,3335,40,34,862
927766,10232040,10789124,10234132,10791188,1469,2456,1335,-993,1248,1505,3325,981,48,37,859
928767,10232296,10789308,10234329,10791385,1018,2437,851,-675,959,1844,3226,2363,48,37,859
929768,10232532,10789460,10234526,10791582,1127,2657,496,-3,841,755,1335,4168,38,31,861
930769,10232748,10789668,10234723,10791779,1243,2302,369,381,962,-1062,-559,2642,38,31,861
931770,10232956,10789892,10234920,10791976,1290,2191,490,149,1153,-946,-177,2798,46,49,864
932770,10233160,10790144,10235117,10792173,1312,1992,744,-429,1257,-88,222,2421,46,49,864
933771,10233332,10790388,10235314,10792370,1522,2022,952,-1192,1269,383,13,1730,42,44,864
934772,10233524,10790620,10235511,10792567,1401,2082,1072,-1701,1199,1245,-202,2467,42,44,864
935773,10233756,10790848,10235708,10792764,1135,2093,1057,-2025,1041,1592,913,1806,44,52,865
936775,10233952,10791104,10235905,10792961,1361,1894,970,-2212,847,1612,1033,1824,44,52,865
937776,10234136,10791352,10236102,10793158,1442,1921,863,-2082,713,831,-300,3772,49,47,864
938777,10234308,10791616,10236299,10793355,1528,1792,753,-1753,645,-107,91,4271,49,47,864
939778,10234504,10791868,10236496,10793552,1379,1844,631,-1533,694,-847,-128,3406,30,40,864
940779,10234660,10792108,10236693,10793749,1648,1900,533,-1617,754,217,-122,3248,30,40,864
941780,10234844,10792344,10236890,10793946,1479,1908,501,-1807,718,1649,-184,3689,27,59,865
942781,10234996,10792604,10237087,10794143,1699,1731,460,-1968,610,1443,494,3384,27,59,865
943782,10235152,10792868,10237284,10794340,1692,1676,388,-1892,420,1617,465,4208,27,40,864
944783,10235336,10793116,10237481,10794537,1523,1754,280,-1617,213,1174,181,4973,27,40,864
945784,10235476,10793356,10237678,10794734,1824,1785,180,-1293,105,394,269,4455,21,49,865
946785,10235644,10793580,10237875,10794931,1662,1874,149,-1111,148,-170,-263,3560,21,49,865
947786,10235792,10793828,10238072,10795128,1809,1702,200,-1179,271,-308,-972,2935,24,43,865
948787,10235948,10794056,10238269,10795325,1777,1813,306,-1380,446,-563,-328,3542,24,43,865
949788,10236104,10794308,10238466,10795522,1796,1639,415,-1458,617,737,218,4469,24,38,863
950788,10236264,10794508,10238663,10795719,1788,1964,445,-1410,773,1919,51,3464,24,38,863
951790,10236404,10794700,10238860,10795916,1938,2016,419,-1336,912,2642,564,3177,27,36,862
952791,10236552,10794860,10239057,10796113,1910,2232,412,-1084,997,2936,-213,4845,27,36,862
953792,10236704,10795084,10239254,10796310,1905,1820,437,-636,1000,2944,633,5959,21,38,863
954793,10236884,10795300,10239451,10796507,1739,1863,394,-159,1036,2564,-1178,4965,21,38,863
955794,10237036,10795484,10239648,10796704,1933,2069,339,202,1189,1695,453,4741,37,27,860
956795,10237184,10795676,10239845,10796901,1981,2021,291,576,1400,1347,679,4531,37,27,860
957795,10237364,10795840,10240042,10797098,1788,2210,241,903,1541,1821,818,4292,28,34,863
958797,10237516,10796016,10240239,10797295,1984,2146,244,1283,1657,1866,606,4550,28,34,863
959798,10237652,10796164,10240436,10797492,2111,2342,282,1584,1693,2230,1371,4161,32,36,861
960799,10237792,10796336,10240633,10797689,2112,2203,272,1754,1671,1950,477,3687,32,36,861
961800,10237952,10796480,10240830,10797886,2004,2401,247,1946,1689,796,401,4573,39,26,859
962801,10238092,10796648,10241027,10798083,2154,2265,261,2239,1752,147,578,5158,39,26,859
963802,10238248,10796796,10241224,10798280,2073,2412,221,2643,1730,311,1235,5175,29,24,859
964803,10238432,10796956,10241421,10798477,1904,2353,-23,2818,1671,-536,182,2567,29,24,859
965804,10238584,10797128,10241618,10798674,2125,2289,-289,2693,1559,-512,977,3212,23,24,859
966804,10238752,10797268,10241815,10798871,2038,2515,-376,2765,1347,-41,1942,6208,23,24,859
967806,10238896,10797424,10242012,10799068,2212,2433,-477,2681,1093,-689,1354,4032,19,21,859
968807,10239044,10797536,10242209,10799265,2208,2745,-652,2471,873,-1431,658,3974,19,21,859
969808,10239188,10797704,10242406,10799462,2258,2409,-747,2118,688,-1879,392,4944,41,23,857
970809,10239344,10797868,10242603,10799659,2202,2449,-762,2023,432,-1574,1355,6734,41,23,857
971810,10239476,10798068,10242800,10799856,2380,2222,-890,1986,160,-1744,1568,5681,31,43,854
972811,10239596,10798256,10242997,10800053,2490,2302,-1143,1863,-73,-1555,1015,5201,31,43,854
973812,10239760,10798436,10243194,10800250,2231,2360,-1376,1713,-247,-758,714,5457,32,40,856
974813,10239960,10798640,10243391,10800447,2004,2207,-1562,1728,-420,396,2036,5471,32,40,856
975814,10240136,10798884,10243588,10800644,2164,1937,-1699,1957,-515,192,1393,5633,50,47,855
976815,10240336,10799044,10243785,10800841,2014,2478,-1677,2096,-450,-677,-930,6084,50,47,855
977816,10240488,10799152,10243982,10801038,2334,2842,-1591,2045,-306,-259,-517,5281,30,34,860
978817,10240660,10799264,10244179,10801235,2221,2856,-1588,1602,-107,-62,-684,3619,30,34,860
979818,10240836,10799396,10244376,10801432,2206,2759,-1526,1461,33,961,332,6403,49,19,858
980819,10241000,10799540,10244573,10801629,2296,2708,-1405,1541,195,298,-600,5921,49,19,858
981820,10241160,10799740,10244770,10801826,2338,2357,-1317,1208,404,-306,-746,3134,42,32,854
982820,10241316,10799972,10244967,10802023,2382,2142,-1236,859,605,-66,-131,5053,42,32,854
983822,10241460,10800260,10245164,10802220,2480,1753,-1090,702,775,-136,-638,5751,39,40,854
984823,10241608,10800556,10245361,10802417,2478,1659,-848,814,912,-28,-610,6384,39,40,854
985824,10241748,10800816,10245558,10802614,2554,1857,-643,920,993,80,-227,4580,38,56,858
986825,10241888,10801152,10245755,10802811,2579,1322,-622,885,1031,-171,-2437,3029,38,56,858
987826,10242032,10801500,10245952,10803008,2578,1180,-637,1104,980,295,-1762,4955,26,75,860
988827,10242176,10801864,10246149,10803205,2602,1007,-635,1437,1005,-1317,-2632,4265,26,75,860
989828,10242352,10802212,10246346,10803402,2413,1041,-672,1645,1076,-1218,-1875,2782,36,77,861
990829,10242520,10802564,10246543,10803599,2475,948,-729,1889,1092,-164,-1648,3705,36,77,861
991830,10242672,10802872,10246740,10803796,2596,1175,-788,2315,1037,136,-1851,4370,35,68,862
992831,10242872,10803172,10246937,10803993,2296,1179,-838,2639,1014,-1224,-1990,3418,35,68,862
993832,10243020,10803516,10247134,10804190,2643,840,-899,2684,944,-872,-852,2784,30,58,862
994833,10243208,10803816,10247331,10804387,2398,1069,-918,2626,777,-431,-377,3239,30,58,862
995834,10243412,10804108,10247528,10804584,2295,1079,-905,2440,546,-948,573,3162,32,49,863
996835,10243596,10804360,10247725,10804781,2427,1305,-840,2297,412,-2007,-154,3943,32,49,863
997836,10243792,10804636,10247922,10804978,2353,1120,-625,2192,475,-2291,-1159,5183,34,59,864
998836,10244016,10804940,10248119,10805175,2168,898,-316,2018,645,-2424,-1279,5133,34,59,864
999838,10244208,10805260,10248316,10805372,2370,744,-25,1473,769,-2277,-1696,3584,36,52,863
1000839,10244408,10805524,10248513,10805569,2319,1064,254,806,718,-776,-2299,4615,36,52,863
1001840,10244640,10805752,10248710,10805766,2105,1276,538,283,519,475,-1831,5055,36,58,866
1002841,10244832,10805984,10248907,10805963,2358,1235,722,-117,315,209,-340,3905,36,58,866
1003842,10245016,10806252,10249104,10806160,2415,979,700,-297,96,-421,-658,3938,49,56,864
1004843,10245188,10806500,10249301,10806357,2501,1082,496,-258,-119,-1864,-1755,3561,49,56,864
1005844,10245416,10806704,10249498,10806554,2138,1354,162,-15,-342,-1973,-394,4143,39,52,862
1006852,10245576,10806936,10249728,10806784,2595,1178,-176,181,-512,-1459,-881,3447,39,52,862
1007846,10245720,10807132,10249925,10806981,2719,1403,-317,297,-601,-1507,-1320,5186,40,36,863
1008847,10245908,10807324,10250122,10807178,2449,1430,-306,27,-674,-1858,-1808,4285,40,36,863
1009848,10246088,10807544,10250319,10807375,2507,1245,-145,-524,-772,-987,-2595,5678,31,51,862
1010849,10246280,10807776,10250516,10807572,2435,1155,91,-1095,-942,432,-2563,6264,31,51,862
1011850,10246480,10807976,10250713,10807769,2385,1354,214,-1700,-1103,263,-1917,4910,51,45,861
1012851,10246672,10808140,10250910,10807966,2438,1593,182,-1912,-1226,540,-834,5756,51,45,861
1013852,10246836,10808308,10251107,10808163,2628,1581,-17,-1800,-1281,5,-423,4978,45,30,862
1014853,10247016,10808456,10251304,10808360,2536,1727,-365,-1573,-1305,27,-91,3808,45,30,862
1015854,10247160,10808628,10251501,10808557,2785,1588,-649,-1306,-1316,933,-632,4508,29,23,860
1016855,10247324,10808772,10251698,10808754,2676,1786,-735,-1171,-1290,1006,-2184,4502,29,23,860
1017856,10247488,10808944,10251895,10808951,2691,1622,-673,-1333,-1261,787,-1157,4043,40,31,857
1018857,10247640,10809076,10252092,10809148,2787,1900,-547,-1632,-1235,868,-1764,3839,40,31,857
1019858,10247792,10809252,10252289,10809345,2808,1634,-393,-1889,-1262,1395,-1848,3965,39,23,858
1020859,10247948,10809404,10252486,10809542,2801,1805,-244,-1939,-1241,429,-1446,4438,39,23,858
1021859,10248100,10809528,10252683,10809739,2847,2012,-167,-1951,-1199,409,-1001,3278,27,19,856
1022860,10248260,10809660,10252880,10809936,2814,1991,-109,-1804,-1232,1379,-284,4345,27,19,856
1023862,10248436,10809764,10253077,10810133,2724,2207,-72,-1644,-1311,1827,-521,3488,28,18,857
1024862,10248620,10809888,10253274,10810330,2681,2114,-59,-1498,-1358,1577,-382,3437,28,18,857
1025864,10248776,10810004,10253471,10810527,2875,2199,-74,-1394,-1354,1151,-221,2832,33,20,855
1026865,10248920,10810144,10253668,10810724,2974,2074,-105,-1241,-1319,1100,-160,2791,33,20,855
1027866,10249080,10810300,10253865,10810921,2891,1992,-98,-1032,-1261,822,-781,3021,32,36,854
1028866,10249256,10810428,10254062,10811118,2801,2198,-23,-876,-1264,1415,-1037,3014,32,36,854
1029867,10249424,10810556,10254259,10811315,2864,2228,149,-684,-1294,1335,-1219,3675,39,30,854
1030868,10249632,10810684,10254456,10811512,2610,2258,326,-588,-1273,830,-750,2591,39,30,854
1031870,10249816,10810796,10254653,10811709,2767,2397,480,-648,-1232,832,-400,2346,29,28,854
1032871,10250020,10810924,10254850,10811906,2640,2327,607,-704,-1231,1441,-502,2658,29,28,854
1033871,10250236,10811036,10255047,10812103,2558,2464,658,-596,-1208,1510,-677,2590,33,21,856
1034873,10250440,10811140,10255244,10812300,2631,2555,623,-347,-1142,1444,-399,2922,33,21,856
1035874,10250660,10811244,10255441,10812497,2522,2596,536,-28,-1046,1267,-1011,3168,34,28,855
1036875,10250868,10811336,10255638,10812694,2593,2718,443,260,-984,1567,-1096,3210,34,28,855
1037876,10251128,10811448,10255835,10812891,2241,2631,400,343,-977,1583,-492,3260,56,30,853
1038877,10251380,10811552,10256032,10813088,2268,2722,437,272,-1007,1476,-481,3494,56,30,853
1039878,10251616,10811656,10256229,10813285,2351,2762,504,12,-991,1095,-817,3283,49,15,852
1040879,10251896,10811740,10256426,10813482,2040,2938,539,-322,-917,807,-314,3100,49,15,852
1041880,10252160,10811848,10256623,10813679,2112,2827,474,-620,-836,940,236,2801,63,25,854
1042881,10252408,10811944,10256820,10813876,2190,2947,347,-675,-820,1371,248,3595,63,25,854
1043882,10252696,10812060,10257017,10814073,1901,2858,208,-558,-840,884,-480,4174,57,28,854
1044883,10252952,10812152,10257214,10814270,2076,3054,114,-428,-874,538,59,3917,57,28,854
1045884,10253212,10812260,10257411,10814467,2025,2994,-20,-494,-875,-92,22,2977,45,14,853
1046884,10253496,10812360,10257608,10814664,1837,3087,-100,-679,-884,177,-850,3302,45,14,853
1047886,10253764,10812456,10257805,10814861,1906,3156,-82,-877,-961,1104,-914,4212,47,30,853
1048887,10254020,10812584,10258002,10815058,1956,2988,16,-1193,-1026,540,-328,3283,47,30,853
1049887,10254312,10812712,10258199,10815255,1691,3018,79,-1583,-1058,102,107,2969,46,21,853
1050889,10254572,10812836,10258396,10815452,1863,3076,53,-1865,-1007,-438,-75,3014,46,21,853
1051890,10254856,10812960,10258593,10815649,1676,3108,-8,-1917,-943,147,-61,3183,56,31,854
1052891,10255160,10813112,10258790,10815846,1505,2954,-98,-1830,-961,1320,111,3486,56,31,854
1053892,10255424,10813240,10258987,10816043,1726,3134,-142,-1676,-925,433,-290,3344,66,22,855
1054893,10255676,10813396,10259184,10816240,1777,2978,-178,-1748,-850,54,-488,2762,66,22,855
1055894,10255956,10813528,10259381,10816437,1567,3157,-122,-1882,-807,350,-857,2967,45,31,857
1056895,10256252,10813676,10259578,10816634,1424,3079,-73,-2147,-798,394,-881,2628,45,31,857
1057896,10256528,10813824,10259775,10816831,1514,3101,-51,-2332,-799,360,-571,2894,48,26,856
1058897,10256784,10813956,10259972,10817028,1614,3231,-23,-2491,-822,396,-663,3053,48,26,856
1059898,10257076,10814128,10260169,10817225,1348,2992,-2,-2608,-837,-24,-643,3011,64,42,855
1060899,10257356,10814292,10260366,10817422,1387,3057,-11,-2723,-799,-225,-244,3258,64,42,855
1061900,10257600,10814432,10260563,10817619,1593,3233,-46,-2781,-765,440,-250,2949,43,29,853
1062901,10257876,10814600,10260760,10817816,1358,3071,-120,-2806,-746,1087,-871,3578,43,29,853
1063902,10258108,10814772,10260957,10818013,1619,3058,-101,-2797,-718,987,-956,3820,61,28,857
1064903,10258336,10814900,10261154,10818210,1630,3364,-101,-2894,-654,682,-381,3262,61,28,857
1065903,10258576,10815092,10261351,10818407,1537,2966,-110,-3006,-564,620,-93,2929,57,40,856
1066904,10258844,10815252,10261548,10818604,1331,3184,-98,-3115,-466,526,-484,3584,57,40,856
1067906,10259088,10815428,10261745,10818801,1461,3094,-36,-3181,-441,737,202,3520,59,30,854
1068907,10259360,10815584,10261942,10818998,1253,3237,10,-3372,-479,731,157,2821,59,30,854
1069908,10259588,10815764,10262139,10819195,1516,3095,82,-3481,-411,-537,-428,3849,37,41,856
1070908,10259828,10815900,10262336,10819392,1422,3398,151,-3570,-322,28,5,3631,37,41,856
1071910,10260076,10816092,10262533,10819589,1350,3050,132,-3770,-325,923,147,2546,52,40,854
1072911,10260400,10816232,10262730,10819786,819,3401,82,-3755,-302,521,36,3944,52,40,854
1073912,10260620,10816376,10262927,10819983,1460,3401,16,-3652,-251,649,-325,3894,42,42,854
1074912,10260884,10816564,10263124,10820180,1156,3130,-71,-3539,-139,365,-1276,3460,42,42,854
1075914,10261172,10816748,10263321,10820377,967,3161,-76,-3276,-17,825,-822,5668,56,35,855
1076914,10261420,10816956,10263518,10820574,1194,3007,-81,-3004,-12,2012,-702,4831,56,35,855
1077915,10261668,10817128,10263715,10820771,1172,3243,-158,-3085,88,392,397,2920,58,37,857
1078916,10261948,10817304,10263912,10820968,937,3229,-163,-3048,326,29,158,5301,58,37,857
1079918,10262204,10817484,10264109,10821165,1061,3212,-97,-2945,448,1327,-354,5162,55,32,858
1080919,10262456,10817672,10264306,10821362,1061,3166,-99,-3041,461,1710,876,3479,55,32,858
1081920,10262700,10817852,10264503,10821559,1092,3225,-136,-3162,449,2179,537,4391,43,36,856
1082920,10262912,10818084,10264700,10821756,1285,2885,-89,-3064,445,1996,-123,6049,43,36,856
1083922,10263124,10818260,10264897,10821953,1279,3244,-34,-3080,509,767,68,4022,39,47,854
1084923,10263352,10818476,10265094,10822150,1166,2987,7,-3170,594,745,-52,4458,39,47,854
1085924,10263572,10818660,10265291,10822347,1206,3194,53,-3024,637,1586,-847,5732,52,41,858
1086925,10263764,10818836,10265488,10822544,1383,3254,103,-2797,664,1644,-896,5157,52,41,858
1087926,10263988,10819024,10265685,10822741,1172,3183,100,-2665,689,1493,-334,4634,39,34,858
1088926,10264164,10819236,10265882,10822938,1481,3027,53,-2586,778,1031,-849,4572,39,34,858
1089934,10264376,10819408,10266112,10823168,1264,3304,32,-2359,910,962,-322,6028,38,40,856
1090928,10264544,10819584,10266309,10823365,1553,3288,17,-2183,995,1264,-161,5127,38,40,856
1091930,10264768,10819752,10266506,10823562,1191,3352,-41,-2141,1013,1278,-73,4378,35,41,856
1092930,10264928,10819920,10266703,10823759,1608,3366,-33,-2032,1056,301,-69,6112,35,41,856
1093932,10265096,10820108,10266900,10823956,1571,3246,-12,-2009,1114,-89,-864,4833,32,40,853
1094932,10265276,10820268,10267097,10824153,1504,3437,-16,-2022,1103,567,311,5410,32,40,853
1095934,10265452,10820432,10267294,10824350,1538,3427,-28,-1983,1091,315,-724,5509,23,43,853
1096935,10265588,10820640,10267491,10824547,1816,3148,-65,-1903,1060,521,-92,6072,23,43,853
1097936,10265772,10820820,10267688,10824744,1521,3332,-76,-1794,1046,257,-566,5482,40,40,854
1098936,10265940,10820996,10267885,10824941,1635,3366,-111,-1820,1090,-170,-209,5545,40,40,854
1099938,10266112,10821188,10268082,10825138,1621,3269,-94,-1824,1094,763,-823,5689,43,44,854
1100939,10266272,10821360,10268279,10825335,1712,3406,-47,-1890,1084,588,-197,5793,43,44,854
1101940,10266440,10821496,10268476,10825532,1676,3659,-31,-2042,1128,82,-471,4746,40,41,853
1102941,10266604,10821656,10268673,10825729,1716,3525,-29,-2118,1128,789,-280,5621,40,41,853
1103942,10266804,10821812,10268870,10825926,1489,3569,-70,-2002,1120,502,-523,5357,27,25,849
1104943,10266980,10821968,10269067,10826123,1650,3588,-169,-1822,1165,-537,-461,4544,27,25,849
1105944,10267132,10822132,10269264,10826320,1819,3554,-199,-1594,1197,-222,-436,5564,42,21,849
1106945,10267316,10822280,10269461,10826517,1626,3675,-156,-1349,1217,32,-511,5799,42,21,849
1107946,10267484,10822432,10269658,10826714,1739,3671,-94,-1303,1199,359,-869,4314,26,32,851
1108947,10267660,10822580,10269855,10826911,1698,3719,-1,-1360,1244,-440,-680,5180,26,32,851
1109948,10267840,10822724,10270052,10827108,1682,3768,95,-1484,1324,-697,-1010,4151,25,26,850
1110961,10268048,10822864,10270249,10827305,1502,3800,172,-1529,1383,-593,-618,4911,25,26,850
1111950,10268240,10823024,10270446,10827502,1605,3711,249,-1353,1399,-245,-1271,5367,39,34,849
1112963,10268432,10823160,10270643,10827699,1607,3800,225,-1274,1312,251,-1053,3972,39,34,849
1113952,10268620,10823324,10270840,10827896,1637,3729,203,-1289,1328,-1072,-978,4685,34,33,850
1114953,10268820,10823484,10271037,10828093,1561,3771,232,-1329,1340,-466,-455,4845,34,33,850
1115954,10268996,10823648,10271234,10828290,1720,3761,268,-1457,1335,-253,-200,4367,32,28,848
1116967,10269220,10823780,10271431,10828487,1409,3800,286,-1528,1327,-195,-733,4630,32,28,848
1117968,10269412,10823932,10271628,10828684,1611,3800,337,-1453,1337,-750,-387,5748,46,30,849
1118969,10269608,10824100,10271825,10828881,1588,3800,335,-1426,1343,-715,-847,4212,46,30,849
1119971,10269808,10824260,10272022,10829078,1561,3800,269,-1467,1368,-989,-264,4320,36,31,850
1120959,10269988,10824448,10272219,10829275,1695,3698,175,-1410,1500,-1579,-250,4965,36,31,850
1121960,10270152,10824664,10272416,10829472,1809,3515,82,-1347,1692,-1876,-67,4042,32,45,849
1122961,10270348,10824872,10272613,10829669,1610,3561,109,-1345,1851,-1532,-171,5064,32,45,849
1123962,10270540,10825112,10272810,10829866,1638,3343,220,-1452,1919,-1130,-591,4500,47,37,851
1124963,10270696,10825324,10273007,10830063,1881,3512,288,-1742,1912,-553,-456,3924,47,37,851
1125964,10270868,10825536,10273204,10830260,1793,3506,305,-2037,1877,-458,-536,4239,38,42,850
1126965,10271036,10825736,10273401,10830457,1831,3581,289,-2207,1694,784,554,4287,38,42,850
1127966,10271208,10825964,10273598,10830654,1818,3394,274,-2178,1554,-427,42,4903,50,51,850
1128967,10271368,10826200,10273795,10830851,1909,3327,207,-2047,1614,-1739,119,4725,50,51,850
1129968,10271536,10826444,10273992,10831048,1872,3258,-52,-2145,1567,991,1834,2045,29,53,851
1130969,10271676,10826676,10274189,10831245,2073,3318,-210,-2011,1059,5454,1455,5088,29,53,851
1131970,10271828,10826880,10274386,10831442,2018,3490,-130,-1632,935,-163,-1883,7096,23,53,852
1132971,10271972,10827116,10274583,10831639,2092,3274,-35,-1704,1126,-927,-511,2820,23,53,852
1133972,10272144,10827340,10274780,10831836,1928,3338,2,-2025,1242,302,-353,3648,44,38,851
1134973,10272296,10827560,10274977,10832033,2074,3354,67,-2104,1201,908,-408,4799,44,38,851
1135974,10272476,10827784,10275174,10832230,1906,3318,58,-2092,1211,-111,91,3388,40,41,852
1136975,10272616,10827988,10275371,10832427,2182,3441,-45,-2144,1268,240,368,2779,40,41,852
1137976,10272768,10828192,10275568,10832624,2127,3439,-115,-2092,1305,390,281,3785,30,46,849
1138977,10272932,10828412,10275765,10832821,2067,3329,-142,-1984,1347,19,-103,3991,30,46,849
1139978,10273088,10828608,10275962,10833018,2136,3480,-136,-1919,1379,137,-614,3451,31,39,849
1140979,10273228,10828796,10276159,10833215,2262,3535,-70,-1907,1343,587,-683,4103,31,39,849
1141980,10273396,10829060,10276356,10833412,2100,3032,-18,-1881,1267,797,-555,3735,45,42,851
1142981,10273528,10829324,10276553,10833609,2354,3004,-35,-1839,1239,414,-129,3027,45,42,851
1143982,10273656,10829600,10276750,10833806,2410,2895,-22,-1649,1327,-263,650,4825,29,57,849
1144983,10273796,10829840,10276947,10834003,2360,3101,4,-1573,1359,710,932,3442,29,57,849
1145984,10273928,10830120,10277144,10834200,2440,2815,-35,-1775,1316,1066,125,2523,31,55,852
1146985,10274064,10830412,10277341,10834397,2443,2700,-70,-1969,1317,481,-1606,2851,31,55,852
1147986,10274184,10830720,10277538,10834594,2576,2552,-1,-2054,1322,926,-465,3823,24,65,850
1148987,10274324,10831012,10277735,10834791,2477,2610,98,-2230,1304,1292,449,2575,24,65,850
1149988,10274460,10831340,10277932,10834988,2529,2329,202,-2370,1340,1180,288,3399,28,60,853
1150989,10274580,10831664,10278129,10835185,2664,2299,322,-2404,1434,1293,444,4079,28,60,853
1151990,10274740,10832020,10278326,10835382,2431,2030,422,-2492,1571,816,311,2997,43,67,854
1152991,10274868,10832324,10278523,10835579,2663,2308,436,-2630,1787,44,-384,2870,43,67,854
1153992,10275016,10832616,10278720,10835776,2559,2342,364,-2789,1975,872,-473,2436,26,66,856
1154993,10275160,10832940,10278917,10835973,2609,2086,265,-2818,2079,1148,-427,3000,26,66,856
1155993,10275304,10833280,10279114,10836170,2633,1925,181,-2697,2148,857,-508,3171,26,66,856
1156994,10275448,10833612,10279311,10836367,2656,1916,91,-2597,2233,717,-326,2738,26,66,856
1157996,10275628,10833900,10279508,10836564,2440,2151,33,-2398,2319,384,811,3672,27,58,857
1158996,10275792,10834228,10279705,10836761,2555,1845,1,-2290,2360,954,749,2717,27,58,857
1159998,10275980,10834580,10279902,10836958,2410,1627,7,-2202,2357,1412,126,2846,35,75,856
1160999,10276176,10834964,10280099,10837155,2360,1345,82,-1980,2374,813,75,3734,35,75,856
1162000,10276392,10835292,10280296,10837352,2228,1638,184,-1616,2526,152,-77,4044,48,73,857
1163000,10276572,10835628,10280493,10837549,2462,1527,237,-1445,2594,1793,158,2190,48,73,857
1164001,10276780,10835992,10280690,10837746,2283,1279,269,-1419,2511,2329,92,2511,53,62,862
1165002,10276992,10836328,10280887,10837943,2251,1393,391,-1213,2463,1590,275,3975,53,62,862
1166004,10277212,10836636,10281084,10838140,2192,1519,534,-990,2522,956,598,2737,38,55,860
1167005,10277432,10836984,10281281,10838337,2183,1204,584,-1002,2573,1326,743,1027,38,55,860
1168006,10277656,10837332,10281478,10838534,2147,1138,618,-879,2618,1306,592,2632,38,71,863
1169007,10277852,10837648,10281675,10838731,2323,1285,738,-346,2661,1691,162,4417,38,71,863
1170008,10278048,10837960,10281872,10838928,2324,1260,799,151,2769,1572,-30,2561,55,55,864
1171009,10278280,10838216,10282069,10839125,2085,1584,690,395,2819,1955,1510,1208,55,55,864
1172010,10278504,10838560,10282266,10839322,2123,970,611,716,2896,979,1453,2709,53,56,861
1173017,10278704,10838904,10282496,10839552,2287,920,716,1003,2854,1929,1826,1963,53,56,861
1174012,10278940,10839212,10282693,10839749,2046,1096,856,1233,2869,213,1579,1769,53,52,864
1175013,10279156,10839508,10282890,10839946,2163,1128,756,1485,2888,299,1533,867,53,52,864
1176014,10279356,10839792,10283087,10840143,2262,1165,534,2047,2788,1075,1574,3169,37,54,865
1177015,10279572,10840156,10283284,10840340,2155,591,414,2793,2588,562,1583,3843,37,54,865
1178016,10279832,10840524,10283481,10840537,1853,491,297,3212,2414,375,397,1270,36,69,865
1179017,10280044,10840836,10283678,10840734,2146,791,160,3287,2421,75,-3801,477,36,69,865
1180018,10280260,10841088,10283875,10840931,2114,1142,253,3437,2404,1491,-3773,3324,48,62,867
1181018,10280536,10841420,10284072,10841128,1705,582,460,3598,2304,807,-898,2374,48,62,867
1182020,10280768,10841760,10284269,10841325,1965,469,514,3458,2336,-605,-671,300,47,62,865
1183021,10281024,10842116,10284466,10841522,1790,299,462,3449,2460,1016,-707,2393,47,62,865
1184022,10281304,10842388,10284663,10841719,1605,792,443,3532,2461,980,-926,2452,65,56,869
1185023,10281580,10842660,10284860,10841916,1595,759,438,3458,2346,898,310,1247,65,56,869
1186024,10281832,10842988,10285057,10842113,1722,351,444,3333,2228,246,53,2050,65,65,869
1187025,10282108,10843304,10285254,10842310,1538,373,402,3570,2096,962,425,3738,65,65,869
1188026,10282328,10843580,10285451,10842507,1878,588,41,3986,1987,2187,695,2279,42,62,870
1189026,10282572,10843812,10285648,10842704,1708,848,-451,4441,2031,1576,-442,3511,42,62,870
1190028,10282852,10844048,10285845,10842901,1447,805,-603,4594,2136,1262,-1425,4335,38,44,871
1191028,10283092,10844292,10286042,10843098,1679,735,-482,4183,2321,-835,-2079,3909,38,44,871
1192030,10283296,10844512,10286239,10843295,1902,874,-238,3718,2504,-802,-2316,3363,38,35,868
1193031,10283536,10844720,10286436,10843492,1658,944,-163,3626,2404,1609,2012,4171,38,35,868
1194032,10283764,10844908,10286633,10843689,1720,1073,-236,3731,2223,-527,2982,1988,35,38,867
1195033,10283988,10845076,10286830,10843886,1733,1211,-296,3497,2164,-2792,161,2661,35,38,867
1196034,10284272,10845244,10287027,10844083,1321,1222,-192,2999,2089,-1031,-1461,3657,50,29,869
1197035,10284552,10845432,10287224,10844280,1310,1101,-67,2037,1935,-789,-2180,2760,50,29,869
1198036,10284812,10845620,10287421,10844477,1408,1105,149,1203,1747,-859,-2839,5439,58,26,867
1199037,10285052,10845808,10287618,10844674,1514,1109,118,705,1507,-316,-2301,4592,58,26,867
1200038,10285292,10845988,10287815,10844871,1496,1167,-247,663,1248,-331,-957,3967,60,25,869
1201039,10285576,10846160,10288012,10845068,1183,1227,-706,1130,1020,-265,-4,6479,60,25,869
1202040,10285844,10846300,10288209,10845265,1253,1452,-1067,1185,798,-338,-9,4545,62,36,868
1203040,10286104,10846432,10288406,10845462,1275,1530,-1167,467,663,-958,-3032,4628,62,36,868
1204042,10286356,10846544,10288603,10845659,1302,1693,-1156,-605,562,-21,-5019,5472,56,39,868
1205042,10286620,10846708,10288800,10845856,1198,1382,-1256,-1012,453,345,-3281,6097,56,39,868
1206043,10286908,10846912,10288997,10846053,1008,1128,-1702,-1006,300,-15,989,4318,60,43,867
1207044,10287148,10847136,10289194,10846250,1290,991,-2058,-1028,140,-477,165,4834,60,43,867
1208046,10287380,10847324,10289391,10846447,1324,1220,-2214,-1775,-65,858,-1588,4349,52,33,868
1209047,10287612,10847516,10289588,10846644,1310,1197,-2046,-2976,-294,1862,-1830,5106,52,33,868
1210048,10287848,10847692,10289785,10846841,1268,1307,-1842,-4442,-488,1715,-1469,4913,49,24,870
1211049,10288088,10847888,10289982,10847038,1224,1182,-1744,-5452,-646,1463,-1529,4936,49,24,870
1212049,10288300,10848024,10290179,10847235,1393,1583,-1899,-5820,-809,1390,-1194,4850,51,25,869
1213050,10288552,10848208,10290376,10847432,1119,1288,-2246,-5561,-988,1583,-999,4588,51,25,869
1214051,10288736,10848388,10290573,10847629,1550,1321,-2595,-5029,-1173,1783,-280,5113,40,29,868
1215053,10288940,10848616,10290770,10847826,1423,1007,-2914,-4527,-1374,2229,-362,4028,40,29,868
1216054,10289136,10848792,10290967,10848023,1473,1342,-3122,-4202,-1600,2326,-692,3804,29,28,867
1217055,10289344,10848996,10291164,10848220,1393,1163,-3172,-4010,-1788,2096,-1164,4566,29,28,867
1218056,10289544,10849156,10291361,10848417,1443,1455,-3082,-3945,-1929,1757,-1068,4036,31,30,869
1219057,10289736,10849300,10291558,10848614,1495,1577,-2989,-4052,-2070,2083,-1530,2908,31,30,869
1220058,10289932,10849452,10291755,10848811,1472,1547,-2883,-4158,-2265,3067,-807,3448,31,21,868
1221059,10290116,10849576,10291952,10849008,1552,1754,-2711,-4128,-2422,2514,57,4052,31,21,868
1222059,10290308,10849752,10292149,10849205,1505,1438,-2665,-4426,-2486,2280,23,830,26,37,866
1223060,10290468,10849948,10292346,10849402,1722,1314,-2728,-4821,-2492,3045,-3053,906,26,37,866
1224062,10290636,10850100,10292543,10849599,1685,1608,-2614,-4815,-2542,3852,-4143,4546,42,26,865
1225063,10290816,10850280,10292740,10849796,1617,1441,-2244,-4158,-2807,5525,-2583,6688,42,26,865
1226063,10290976,10850416,10292937,10849993,1759,1743,-1796,-3472,-3105,5066,-2432,5609,24,36,865
1227065,10291128,10850568,10293134,10850190,1829,1662,-1354,-3418,-3224,4226,-745,3574,24,36,865
1228065,10291332,10850716,10293331,10850387,1501,1708,-918,-3685,-3009,2373,-1245,3428,30,37,866
1229066,10291496,10850844,10293528,10850584,1766,1863,-433,-3872,-2721,3183,762,4280,30,37,866
1230067,10291672,10851016,10293725,10850781,1701,1599,-82,-4014,-2511,4292,177,3256,31,36,864
1231069,10291820,10851184,10293922,10850978,1898,1637,42,-3974,-2220,3543,-7238,2503,31,36,864
1232070,10292004,10851336,10294119,10851175,1679,1757,264,-3392,-2110,5468,-2407,6538,43,20,863
1233071,10292176,10851500,10294316,10851372,1765,1696,638,-2603,-2236,6582,3142,7169,43,20,863
1234072,10292348,10851624,10294513,10851569,1777,1978,804,-2152,-2205,4236,1195,4247,35,17,864
1235073,10292552,10851768,10294710,10851766,1574,1877,606,-1830,-1635,1985,-8836,2759,35,17,864
1236074,10292732,10851884,10294907,10851963,1732,2087,586,-951,-1164,3916,-1271,8160,33,20,863
1237075,10292916,10852024,10295104,10852160,1713,1962,693,76,-837,3412,-1326,6223,33,20,863
1238076,10293100,10852136,10295301,10852357,1719,2175,635,772,-575,3040,-3633,3802,24,30,861
1239077,10293276,10852248,10295498,10852554,1779,2212,558,1316,-377,3950,-2180,5445,24,30,861
1240078,10293472,10852360,10295695,10852751,1654,2249,605,1795,-260,4228,-2174,5084,28,19,863
1241079,10293676,10852488,10295892,10852948,1602,2180,784,2189,-97,3476,-1727,5855,28,19,863
1242080,10293884,10852600,10296089,10853145,1572,2317,925,2313,140,2985,-2643,4054,49,31,861
1243081,10294068,10852712,10296286,10853342,1729,2355,1022,2320,406,2672,-2524,4560,49,31,861
1244082,10294296,10852820,10296483,10853539,1441,2419,1118,2482,701,2183,-3044,5440,35,15,861
1245082,10294500,10852936,10296680,10853736,1588,2405,1087,2567,876,2875,-2006,3430,35,15,861
1246083,10294740,10853052,10296877,10853933,1345,2441,1002,2783,1007,2362,-1590,5092,34,28,860
1247084,10294988,10853152,10297074,10854130,1272,2583,943,3021,1250,761,-1764,5233,34,28,860
1248086,10295184,10853252,10297271,10854327,1599,2626,915,2891,1564,41,-2401,2929,52,12,858
1249087,10295400,10853376,10297468,10854524,1465,2509,1002,2601,1880,-103,-3649,5173,52,12,858
1250088,10295616,10853496,10297665,10854721,1457,2568,1131,2284,2107,464,-3574,4376,39,18,860
1251088,10295852,10853600,10297862,10854918,1316,2709,1076,2083,2128,1477,-1311,3282,39,18,860
1252090,10296072,10853704,10298059,10855115,1406,2750,974,1948,2056,1199,-713,3554,34,18,860
1253090,10296280,10853816,10298256,10855312,1476,2738,1067,1945,1946,1517,-1265,5663,34,18,860
1254092,10296540,10853936,10298453,10855509,1124,2722,1275,1765,1791,2032,-922,4104,32,28,859
1255092,10296784,10854072,10298650,10855706,1204,2649,1424,1364,1650,1767,190,2995,32,28,859
1256103,10297000,10854236,10298880,10855936,1386,2503,1412,804,1637,757,-172,2032,32,28,859
1257095,10297248,10854400,10299077,10856133,1163,2518,1270,446,1610,1280,1259,2436,32,28,859
1258096,10297484,10854568,10299274,10856330,1221,2506,1017,446,1420,1464,2425,2241,35,40,859
1259096,10297704,10854752,10299471,10856527,1312,2412,750,840,1206,389,2605,3712,35,40,859
1260098,10297956,10854916,10299668,10856724,1088,2552,592,1415,1179,-602,1351,4238,34,29,861
1261099,10298172,10855112,10299865,10856921,1304,2352,547,1619,1299,-871,-216,2966,34,29,861
1262099,10298408,10855312,10300062,10857118,1163,2326,621,1221,1390,-672,-621,2547,34,46,862
1263100,10298648,10855536,10300259,10857315,1119,2165,782,392,1404,-842,-133,1981,34,46,862
1264102,10298844,10855744,10300456,10857512,1395,2260,987,-769,1328,-561,694,1573,31,32,862
1265103,10299028,10855944,10300653,10857709,1477,2309,1235,-1923,1077,922,1182,2552,31,32,862
1266104,10299220,10856168,10300850,10857906,1429,2148,1429,-2732,784,839,773,3494,26,49,864
1267104,10299448,10856408,10301047,10858103,1190,2029,1436,-3202,506,1016,218,3187,26,49,864
1268106,10299656,10856628,10301244,10858300,1310,2144,1289,-3099,304,959,345,4489,27,39,862
1269106,10299836,10856872,10301441,10858497,1494,1975,1006,-2621,223,871,-155,4006,27,39,862
1270108,10300044,10857104,10301638,10858694,1314,2034,643,-2062,245,530,-378,3173,26,52,864
1271108,10300204,10857336,10301835,10858891,1630,2019,381,-1470,382,185,55,4934,26,52,864
1272110,10300380,10857596,10302032,10859088,1540,1817,251,-1047,597,531,-152,3955,48,51,864
1273111,10300548,10857824,10302229,10859285,1603,2004,175,-1137,738,2205,-568,2369,48,51,864
1274112,10300752,10858060,10302426,10859482,1375,1936,192,-1443,884,2156,-785,3135,44,43,863
1275113,10300892,10858320,10302623,10859679,1801,1759,313,-1659,1061,1669,-72,3759,44,43,863
1276114,10301076,10858552,10302820,10859876,1532,1919,411,-1778,1167,998,-413,3558,22,40,863
1277115,10301244,10858800,10303017,10860073,1645,1797,466,-1826,1229,-290,392,4320,22,40,863
1278115,10301392,10859016,10303214,10860270,1792,1989,440,-1803,1275,-126,-455,4035,41,43,864
1279116,10301556,10859272,10303411,10860467,1707,1713,360,-1753,1217,1362,452,3839,41,43,864
1280118,10301696,10859508,10303608,10860664,1882,1822,281,-1714,1233,515,-220,3958,37,54,861
1281119,10301860,10859752,10303805,10860861,1747,1751,248,-1667,1302,724,-185,4506,37,54,861
1282120,10302008,10859968,10304002,10861058,1869,1918,227,-1521,1345,1268,-23,4680,43,38,863
1283121,10302164,10860176,10304199,10861255,1837,1963,187,-1176,1338,1991,-162,5151,43,38,863
1284122,10302332,10860384,10304396,10861452,1776,1959,148,-779,1392,1748,-582,5219,33,39,864
1285123,10302504,10860604,10304593,10861649,1762,1874,146,-473,1502,1609,-298,5005,33,39,864
1286124,10302668,10860784,10304790,10861846,1827,2131,165,-299,1604,1589,-586,4414,42,37,862
1287124,10302836,10860976,10304987,10862043,1815,2058,240,-121,1640,1771,-450,4240,42,37,862
1288126,10302968,10861164,10305184,10862240,2068,2087,426,108,1727,1375,446,4582,31,27,863
1289127,10303152,10861356,10305381,10862437,1750,2066,639,249,1894,1284,-196,3835,31,27,863
1290127,10303280,10861524,10305578,10862634,2130,2228,766,256,2002,1634,136,3041,21,27,862
1291128,10303416,10861676,10305775,10862831,2108,2348,811,300,2083,941,-379,3309,21,27,862
1292129,10303592,10861824,10305972,10863028,1867,2395,848,416,2114,911,906,4009,38,35,860
1293130,10303720,10862012,10306169,10863225,2199,2149,840,646,2133,810,907,4272,38,35,860
1294131,10303896,10862208,10306366,10863422,1908,2100,781,1015,2245,-190,-785,4804,21,46,857
1295132,10304076,10862424,10306563,10863619,1891,1967,754,1468,2291,171,499,5240,21,46,857
1296133,10304232,10862628,10306760,10863816,2059,2039,663,1904,2169,1291,1107,4782,39,35,859
1297135,10304364,10862856,10306957,10864013,2239,1875,543,2329,2158,144,-332,4890,39,35,859
1298136,10304524,10863048,10307154,10864210,2080,2103,487,2802,2269,119,3,5310,29,47,862
1299137,10304672,10863268,10307351,10864407,2177,1918,478,3095,2359,-68,-116,4603,29,47,862
1300138,10304816,10863520,10307548,10864604,2226,1694,549,3257,2429,-748,-419,4736,39,37,860
1301139,10304948,10863756,10307745,10864801,2331,1777,621,3304,2424,-155,558,4446,39,37,860
1302140,10305088,10864008,10307942,10864998,2306,1653,476,2816,2336,47,1055,130,40,52,858
1303140,10305220,10864276,10308139,10865195,2385,1522,332,2240,2262,205,1040,2459,40,52,858
1304142,10305392,10864500,10308336,10865392,2146,1785,465,1913,2274,-669,-375,5174,33,49,859
1305143,10305604,10864640,10308533,10865589,1891,2336,589,1292,2376,-1565,-744,1771,33,49,859
